<?xml version="1.0" encoding="UTF-8"?>
<?xml-stylesheet type="text/xsl" href="resources/xsl/config.xsl"?>
<!--
  Copyright © 2008-2024 Pinnacle 21 LLC

  This file is part of Pinnacle 21 Community.

  Pinnacle 21 Community is free software licensed under the Pinnacle 21 Open Source Software License
  located at [https://www.pinnacle21.com/license] (the “License”).

  Pinnacle 21 Community is distributed in the hope that it will be useful, but WITHOUT ANY WARRANTY,
  and is distributed “AS IS,” “WITH ALL FAULTS,” and without the implied warranty of
  MERCHANTABILITY or FITNESS FOR A PARTICULAR PURPOSE.
  See the License for more details.

  @see CHANGELOG.txt
-->
<ODM xmlns="http://www.cdisc.org/ns/odm/v1.3" xmlns:xsi="http://www.w3.org/2001/XMLSchema-instance" xmlns:xlink="http://www.w3.org/1999/xlink" xmlns:def="http://www.cdisc.org/ns/def/v2.0" xmlns:val="http://www.opencdisc.org/schema/validator" xmlns:oce="http://oce.opencdisc.com" xsi:schemaLocation="http://www.cdisc.org/ns/odm/v1.3 resources/schema/validator1-0-0.xsd" FileType="Snapshot" FileOID="SDTM-IG 3.4" CreationDateTime="2024-01-04T04:35:04" ODMVersion="1.3" Originator="Pinnacle 21 LLC" xml:lang="en">
    <Study OID="SDTM-IG 3.4">
        <GlobalVariables>
            <StudyName>Pinnacle 21 Validator Configuration</StudyName>
            <StudyDescription>Pinnacle 21 Validator Configuration for SDTM-IG 3.4</StudyDescription>
            <ProtocolName>Pinnacle 21 Validator Configuration</ProtocolName>
        </GlobalVariables>
        <MetaDataVersion OID="SDTM-IG 3.4" Name="SDTM-IG 3.4" Description="This spec validates study data compliance with standard SDTM-IG version 3.4" def:DefineVersion="2.0.0" def:StandardName="SDTM-IG" def:StandardVersion="3.4">
            <ItemGroupDef OID="IG.GLOBAL" Name="GLOBAL" Repeating="No" IsReferenceData="No" def:Class="SYSTEM" def:ArchiveLocationID="Location.GLOBAL">
                <Description>
                    <TranslatedText xml:lang="en">Global Rules Section</TranslatedText>
                </Description>
                <def:leaf ID="Location.GLOBAL" xlink:href="global.xpt">
                    <def:title>global.xpt</def:title>
                </def:leaf>
                <val:ValidationRuleRef RuleID="DD0101" Active="Yes"/>
                <val:ValidationRuleRef RuleID="SD0061" Active="Yes"/>
                <val:ValidationRuleRef RuleID="SD1020" Active="Yes"/>
                <val:ValidationRuleRef RuleID="SD1061" Active="Yes"/>
                <val:ValidationRuleRef RuleID="SD1106" Active="Yes"/>
                <val:ValidationRuleRef RuleID="SD1107" Active="Yes"/>
                <val:ValidationRuleRef RuleID="SD1108" Active="Yes"/>
                <val:ValidationRuleRef RuleID="SD1109" Active="Yes"/>
                <val:ValidationRuleRef RuleID="SD1110" Active="Yes"/>
                <val:ValidationRuleRef RuleID="SD1111" Active="Yes"/>
                <val:ValidationRuleRef RuleID="SD1112" Active="Yes"/>
                <val:ValidationRuleRef RuleID="SD1113" Active="Yes"/>
                <val:ValidationRuleRef RuleID="SD1115" Active="Yes"/>
                <val:ValidationRuleRef RuleID="SD1270" Active="Yes"/>
                <val:ValidationRuleRef RuleID="SD1321" Active="Yes"/>
                <val:ValidationRuleRef RuleID="SD1355" Active="Yes"/>
                <val:ValidationRuleRef RuleID="SD1356" Active="Yes"/>
                <val:ValidationRuleRef RuleID="SD1357" Active="Yes"/>
            </ItemGroupDef>
            <ItemGroupDef OID="IG.UNRECOGNIZED" Name="UNRECOGNIZED" Repeating="No" IsReferenceData="No" def:Class="SYSTEM" def:ArchiveLocationID="Location.UNRECOGNIZED">
                <Description>
                    <TranslatedText xml:lang="en">Unrecognized</TranslatedText>
                </Description>
                <def:leaf ID="Location.UNRECOGNIZED" xlink:href="unrecognized.xpt">
                    <def:title>unrecognized.xpt</def:title>
                </def:leaf>
                <val:ValidationRuleRef RuleID="SD9999" Active="Yes"/>
            </ItemGroupDef>
            <ItemGroupDef OID="IG.TA" Name="TA" Repeating="No" IsReferenceData="Yes" Purpose="Tabulation" def:Structure="One record per planned Element per Arm" def:Class="TRIAL DESIGN" def:ArchiveLocationID="Location.TA">
                <Description>
                    <TranslatedText xml:lang="en">Trial Arms</TranslatedText>
                </Description>
                <ItemRef ItemOID="IT.TA.STUDYID" OrderNumber="1" Mandatory="Yes" KeySequence="1" Role="Identifier" val:Core="Required"/>
                <ItemRef ItemOID="IT.TA.DOMAIN" OrderNumber="2" Mandatory="Yes" Role="Identifier" val:Core="Required"/>
                <ItemRef ItemOID="IT.TA.ARMCD" OrderNumber="3" Mandatory="Yes" KeySequence="2" Role="Topic" val:Core="Required"/>
                <ItemRef ItemOID="IT.TA.ARM" OrderNumber="4" Mandatory="Yes" Role="Synonym Qualifier" val:Core="Required"/>
                <ItemRef ItemOID="IT.TA.TAETORD" OrderNumber="5" Mandatory="Yes" KeySequence="3" Role="Timing" val:Core="Required"/>
                <ItemRef ItemOID="IT.TA.ETCD" OrderNumber="6" Mandatory="Yes" Role="Record Qualifier" val:Core="Required"/>
                <ItemRef ItemOID="IT.TA.ELEMENT" OrderNumber="7" Mandatory="No" Role="Synonym Qualifier" val:Core="Permissible"/>
                <ItemRef ItemOID="IT.TA.TABRANCH" OrderNumber="8" Mandatory="No" Role="Rule" val:Core="Expected"/>
                <ItemRef ItemOID="IT.TA.TATRANS" OrderNumber="9" Mandatory="No" Role="Rule" val:Core="Expected"/>
                <ItemRef ItemOID="IT.TA.EPOCH" OrderNumber="10" Mandatory="Yes" Role="Timing" val:Core="Required"/>
                <def:leaf ID="Location.TA" xlink:href="ta.xpt">
                    <def:title>ta.xpt</def:title>
                </def:leaf>
                <val:ValidationRuleRef RuleID="CT2001" Active="Yes"/>
                <val:ValidationRuleRef RuleID="CT2002" Active="Yes"/>
                <val:ValidationRuleRef RuleID="CT2003" Active="Yes"/>
                <val:ValidationRuleRef RuleID="CT2004" Active="Yes"/>
                <val:ValidationRuleRef RuleID="CT2005" Active="Yes"/>
                <val:ValidationRuleRef RuleID="CT2006" Active="Yes"/>
                <val:ValidationRuleRef RuleID="SD0001" Active="Yes"/>
                <val:ValidationRuleRef RuleID="SD0002" Active="Yes"/>
                <val:ValidationRuleRef RuleID="SD0004" Active="Yes"/>
                <val:ValidationRuleRef RuleID="SD0037" Active="Yes"/>
                <val:ValidationRuleRef RuleID="SD0054" Active="Yes"/>
                <val:ValidationRuleRef RuleID="SD0055" Active="Yes"/>
                <val:ValidationRuleRef RuleID="SD0056" Active="Yes"/>
                <val:ValidationRuleRef RuleID="SD0057" Active="Yes"/>
                <val:ValidationRuleRef RuleID="SD0058" Active="Yes"/>
                <val:ValidationRuleRef RuleID="SD0059" Active="Yes"/>
                <val:ValidationRuleRef RuleID="SD0060" Active="Yes"/>
                <val:ValidationRuleRef RuleID="SD0062" Active="Yes"/>
                <val:ValidationRuleRef RuleID="SD0067" Active="Yes"/>
                <val:ValidationRuleRef RuleID="SD1004" Active="Yes"/>
                <val:ValidationRuleRef RuleID="SD1005" Active="Yes"/>
                <val:ValidationRuleRef RuleID="SD1009" Active="Yes"/>
                <val:ValidationRuleRef RuleID="SD1012" Active="Yes"/>
                <val:ValidationRuleRef RuleID="SD1021" Active="Yes"/>
                <val:ValidationRuleRef RuleID="SD1027" Active="Yes"/>
                <val:ValidationRuleRef RuleID="SD1033" Active="Yes"/>
                <val:ValidationRuleRef RuleID="SD1034" Active="Yes"/>
                <val:ValidationRuleRef RuleID="SD1050" Active="Yes"/>
                <val:ValidationRuleRef RuleID="SD1052" Active="Yes"/>
                <val:ValidationRuleRef RuleID="SD1053" Active="Yes"/>
                <val:ValidationRuleRef RuleID="SD1063" Active="Yes"/>
                <val:ValidationRuleRef RuleID="SD1071" Active="Yes"/>
                <val:ValidationRuleRef RuleID="SD1073" Active="Yes"/>
                <val:ValidationRuleRef RuleID="SD1074" Active="Yes"/>
                <val:ValidationRuleRef RuleID="SD1075" Active="Yes"/>
                <val:ValidationRuleRef RuleID="SD1076" Active="Yes"/>
                <val:ValidationRuleRef RuleID="SD1078" Active="Yes"/>
                <val:ValidationRuleRef RuleID="SD1079" Active="Yes"/>
                <val:ValidationRuleRef RuleID="SD1082" Active="Yes"/>
                <val:ValidationRuleRef RuleID="SD1152" Active="Yes"/>
                <val:ValidationRuleRef RuleID="SD1228" Active="Yes"/>
                <val:ValidationRuleRef RuleID="SD1229" Active="Yes"/>
                <val:ValidationRuleRef RuleID="SD1230" Active="Yes"/>
                <val:ValidationRuleRef RuleID="SD1231" Active="Yes"/>
                <val:ValidationRuleRef RuleID="SD1267" Active="Yes"/>
                <val:ValidationRuleRef RuleID="SD1300" Active="Yes"/>
                <val:ValidationRuleRef RuleID="SD1324" Active="Yes"/>
                <val:ValidationRuleRef RuleID="SD1325" Active="Yes"/>
                <val:ValidationRuleRef RuleID="SD1354" Active="Yes"/>
            </ItemGroupDef>
            <ItemGroupDef OID="IG.TD" Name="TD" Repeating="No" IsReferenceData="Yes" Purpose="Tabulation" def:Structure="One record per planned constant assessment period" def:Class="TRIAL DESIGN" def:ArchiveLocationID="Location.TD">
                <Description>
                    <TranslatedText xml:lang="en">Trial Disease Assessments</TranslatedText>
                </Description>
                <ItemRef ItemOID="IT.TD.STUDYID" OrderNumber="1" Mandatory="Yes" KeySequence="1" Role="Identifier" val:Core="Required"/>
                <ItemRef ItemOID="IT.TD.DOMAIN" OrderNumber="2" Mandatory="Yes" Role="Identifier" val:Core="Required"/>
                <ItemRef ItemOID="IT.TD.TDORDER" OrderNumber="3" Mandatory="Yes" KeySequence="2" Role="Timing" val:Core="Required"/>
                <ItemRef ItemOID="IT.TD.TDANCVAR" OrderNumber="4" Mandatory="Yes" Role="Timing" val:Core="Required"/>
                <ItemRef ItemOID="IT.TD.TDSTOFF" OrderNumber="5" Mandatory="Yes" Role="Timing" val:Core="Required"/>
                <ItemRef ItemOID="IT.TD.TDTGTPAI" OrderNumber="6" Mandatory="Yes" Role="Timing" val:Core="Required"/>
                <ItemRef ItemOID="IT.TD.TDMINPAI" OrderNumber="7" Mandatory="Yes" Role="Timing" val:Core="Required"/>
                <ItemRef ItemOID="IT.TD.TDMAXPAI" OrderNumber="8" Mandatory="Yes" Role="Timing" val:Core="Required"/>
                <ItemRef ItemOID="IT.TD.TDNUMRPT" OrderNumber="9" Mandatory="Yes" Role="Record Qualifier" val:Core="Required"/>
                <def:leaf ID="Location.TD" xlink:href="td.xpt">
                    <def:title>td.xpt</def:title>
                </def:leaf>
                <val:ValidationRuleRef RuleID="CT2001" Active="Yes"/>
                <val:ValidationRuleRef RuleID="CT2002" Active="Yes"/>
                <val:ValidationRuleRef RuleID="CT2003" Active="Yes"/>
                <val:ValidationRuleRef RuleID="CT2004" Active="Yes"/>
                <val:ValidationRuleRef RuleID="CT2005" Active="Yes"/>
                <val:ValidationRuleRef RuleID="CT2006" Active="Yes"/>
                <val:ValidationRuleRef RuleID="SD0001" Active="Yes"/>
                <val:ValidationRuleRef RuleID="SD0002" Active="Yes"/>
                <val:ValidationRuleRef RuleID="SD0004" Active="Yes"/>
                <val:ValidationRuleRef RuleID="SD0037" Active="Yes"/>
                <val:ValidationRuleRef RuleID="SD0054" Active="Yes"/>
                <val:ValidationRuleRef RuleID="SD0055" Active="Yes"/>
                <val:ValidationRuleRef RuleID="SD0056" Active="Yes"/>
                <val:ValidationRuleRef RuleID="SD0057" Active="Yes"/>
                <val:ValidationRuleRef RuleID="SD0058" Active="Yes"/>
                <val:ValidationRuleRef RuleID="SD0059" Active="Yes"/>
                <val:ValidationRuleRef RuleID="SD0060" Active="Yes"/>
                <val:ValidationRuleRef RuleID="SD0062" Active="Yes"/>
                <val:ValidationRuleRef RuleID="SD1005" Active="Yes"/>
                <val:ValidationRuleRef RuleID="SD1011" Active="Yes"/>
                <val:ValidationRuleRef RuleID="SD1021" Active="Yes"/>
                <val:ValidationRuleRef RuleID="SD1063" Active="Yes"/>
                <val:ValidationRuleRef RuleID="SD1071" Active="Yes"/>
                <val:ValidationRuleRef RuleID="SD1073" Active="Yes"/>
                <val:ValidationRuleRef RuleID="SD1074" Active="Yes"/>
                <val:ValidationRuleRef RuleID="SD1075" Active="Yes"/>
                <val:ValidationRuleRef RuleID="SD1076" Active="Yes"/>
                <val:ValidationRuleRef RuleID="SD1078" Active="Yes"/>
                <val:ValidationRuleRef RuleID="SD1079" Active="Yes"/>
                <val:ValidationRuleRef RuleID="SD1082" Active="Yes"/>
                <val:ValidationRuleRef RuleID="SD1152" Active="Yes"/>
                <val:ValidationRuleRef RuleID="SD1228" Active="Yes"/>
                <val:ValidationRuleRef RuleID="SD1229" Active="Yes"/>
                <val:ValidationRuleRef RuleID="SD1230" Active="Yes"/>
                <val:ValidationRuleRef RuleID="SD1231" Active="Yes"/>
                <val:ValidationRuleRef RuleID="SD1300" Active="Yes"/>
                <val:ValidationRuleRef RuleID="SD1301" Active="Yes"/>
                <val:ValidationRuleRef RuleID="SD1324" Active="Yes"/>
                <val:ValidationRuleRef RuleID="SD1325" Active="Yes"/>
            </ItemGroupDef>
            <ItemGroupDef OID="IG.TE" Name="TE" Repeating="No" IsReferenceData="Yes" Purpose="Tabulation" def:Structure="One record per planned Element" def:Class="TRIAL DESIGN" def:ArchiveLocationID="Location.TE">
                <Description>
                    <TranslatedText xml:lang="en">Trial Elements</TranslatedText>
                </Description>
                <ItemRef ItemOID="IT.TE.STUDYID" OrderNumber="1" Mandatory="Yes" KeySequence="1" Role="Identifier" val:Core="Required"/>
                <ItemRef ItemOID="IT.TE.DOMAIN" OrderNumber="2" Mandatory="Yes" Role="Identifier" val:Core="Required"/>
                <ItemRef ItemOID="IT.TE.ETCD" OrderNumber="3" Mandatory="Yes" KeySequence="2" Role="Topic" val:Core="Required"/>
                <ItemRef ItemOID="IT.TE.ELEMENT" OrderNumber="4" Mandatory="Yes" Role="Synonym Qualifier" val:Core="Required"/>
                <ItemRef ItemOID="IT.TE.TESTRL" OrderNumber="5" Mandatory="Yes" Role="Rule" val:Core="Required"/>
                <ItemRef ItemOID="IT.TE.TEENRL" OrderNumber="6" Mandatory="No" Role="Rule" val:Core="Permissible"/>
                <ItemRef ItemOID="IT.TE.TEDUR" OrderNumber="7" Mandatory="No" Role="Timing" val:Core="Permissible"/>
                <def:leaf ID="Location.TE" xlink:href="te.xpt">
                    <def:title>te.xpt</def:title>
                </def:leaf>
                <val:ValidationRuleRef RuleID="CT2001" Active="Yes"/>
                <val:ValidationRuleRef RuleID="CT2002" Active="Yes"/>
                <val:ValidationRuleRef RuleID="CT2003" Active="Yes"/>
                <val:ValidationRuleRef RuleID="CT2004" Active="Yes"/>
                <val:ValidationRuleRef RuleID="CT2005" Active="Yes"/>
                <val:ValidationRuleRef RuleID="CT2006" Active="Yes"/>
                <val:ValidationRuleRef RuleID="SD0001" Active="Yes"/>
                <val:ValidationRuleRef RuleID="SD0002" Active="Yes"/>
                <val:ValidationRuleRef RuleID="SD0004" Active="Yes"/>
                <val:ValidationRuleRef RuleID="SD0015" Active="Yes"/>
                <val:ValidationRuleRef RuleID="SD0037" Active="Yes"/>
                <val:ValidationRuleRef RuleID="SD0054" Active="Yes"/>
                <val:ValidationRuleRef RuleID="SD0055" Active="Yes"/>
                <val:ValidationRuleRef RuleID="SD0056" Active="Yes"/>
                <val:ValidationRuleRef RuleID="SD0057" Active="Yes"/>
                <val:ValidationRuleRef RuleID="SD0058" Active="Yes"/>
                <val:ValidationRuleRef RuleID="SD0059" Active="Yes"/>
                <val:ValidationRuleRef RuleID="SD0060" Active="Yes"/>
                <val:ValidationRuleRef RuleID="SD0062" Active="Yes"/>
                <val:ValidationRuleRef RuleID="SD0089" Active="Yes"/>
                <val:ValidationRuleRef RuleID="SD1005" Active="Yes"/>
                <val:ValidationRuleRef RuleID="SD1009" Active="Yes"/>
                <val:ValidationRuleRef RuleID="SD1011" Active="Yes"/>
                <val:ValidationRuleRef RuleID="SD1021" Active="Yes"/>
                <val:ValidationRuleRef RuleID="SD1063" Active="Yes"/>
                <val:ValidationRuleRef RuleID="SD1064" Active="Yes"/>
                <val:ValidationRuleRef RuleID="SD1068" Active="Yes"/>
                <val:ValidationRuleRef RuleID="SD1071" Active="Yes"/>
                <val:ValidationRuleRef RuleID="SD1073" Active="Yes"/>
                <val:ValidationRuleRef RuleID="SD1074" Active="Yes"/>
                <val:ValidationRuleRef RuleID="SD1075" Active="Yes"/>
                <val:ValidationRuleRef RuleID="SD1076" Active="Yes"/>
                <val:ValidationRuleRef RuleID="SD1078" Active="Yes"/>
                <val:ValidationRuleRef RuleID="SD1079" Active="Yes"/>
                <val:ValidationRuleRef RuleID="SD1082" Active="Yes"/>
                <val:ValidationRuleRef RuleID="SD1152" Active="Yes"/>
                <val:ValidationRuleRef RuleID="SD1228" Active="Yes"/>
                <val:ValidationRuleRef RuleID="SD1229" Active="Yes"/>
                <val:ValidationRuleRef RuleID="SD1230" Active="Yes"/>
                <val:ValidationRuleRef RuleID="SD1231" Active="Yes"/>
                <val:ValidationRuleRef RuleID="SD1271" Active="Yes"/>
                <val:ValidationRuleRef RuleID="SD1300" Active="Yes"/>
                <val:ValidationRuleRef RuleID="SD1324" Active="Yes"/>
                <val:ValidationRuleRef RuleID="SD1325" Active="Yes"/>
                <val:ValidationRuleRef RuleID="SD1378" Active="Yes"/>
                <val:ValidationRuleRef RuleID="SD1379" Active="Yes"/>
            </ItemGroupDef>
            <ItemGroupDef OID="IG.TI" Name="TI" Repeating="No" IsReferenceData="Yes" Purpose="Tabulation" def:Structure="One record per I/E criterion" def:Class="TRIAL DESIGN" def:ArchiveLocationID="Location.TI">
                <Description>
                    <TranslatedText xml:lang="en">Trial Inclusion/Exclusion Criteria</TranslatedText>
                </Description>
                <ItemRef ItemOID="IT.TI.STUDYID" OrderNumber="1" Mandatory="Yes" KeySequence="1" Role="Identifier" val:Core="Required"/>
                <ItemRef ItemOID="IT.TI.DOMAIN" OrderNumber="2" Mandatory="Yes" Role="Identifier" val:Core="Required"/>
                <ItemRef ItemOID="IT.TI.IETESTCD" OrderNumber="3" Mandatory="Yes" KeySequence="2" Role="Topic" val:Core="Required"/>
                <ItemRef ItemOID="IT.TI.IETEST" OrderNumber="4" Mandatory="Yes" Role="Synonym Qualifier" val:Core="Required"/>
                <ItemRef ItemOID="IT.TI.IECAT" OrderNumber="5" Mandatory="Yes" Role="Grouping Qualifier" val:Core="Required"/>
                <ItemRef ItemOID="IT.TI.IESCAT" OrderNumber="6" Mandatory="No" Role="Grouping Qualifier" val:Core="Permissible"/>
                <ItemRef ItemOID="IT.TI.TIRL" OrderNumber="7" Mandatory="No" Role="Rule" val:Core="Permissible"/>
                <ItemRef ItemOID="IT.TI.TIVERS" OrderNumber="8" Mandatory="No" Role="Record Qualifier" val:Core="Permissible"/>
                <def:leaf ID="Location.TI" xlink:href="ti.xpt">
                    <def:title>ti.xpt</def:title>
                </def:leaf>
                <val:ValidationRuleRef RuleID="CT2001" Active="Yes"/>
                <val:ValidationRuleRef RuleID="CT2002" Active="Yes"/>
                <val:ValidationRuleRef RuleID="CT2003" Active="Yes"/>
                <val:ValidationRuleRef RuleID="CT2004" Active="Yes"/>
                <val:ValidationRuleRef RuleID="CT2005" Active="Yes"/>
                <val:ValidationRuleRef RuleID="CT2006" Active="Yes"/>
                <val:ValidationRuleRef RuleID="SD0001" Active="Yes"/>
                <val:ValidationRuleRef RuleID="SD0002" Active="Yes"/>
                <val:ValidationRuleRef RuleID="SD0004" Active="Yes"/>
                <val:ValidationRuleRef RuleID="SD0018" Active="Yes"/>
                <val:ValidationRuleRef RuleID="SD0037" Active="Yes"/>
                <val:ValidationRuleRef RuleID="SD0054" Active="Yes"/>
                <val:ValidationRuleRef RuleID="SD0055" Active="Yes"/>
                <val:ValidationRuleRef RuleID="SD0056" Active="Yes"/>
                <val:ValidationRuleRef RuleID="SD0057" Active="Yes"/>
                <val:ValidationRuleRef RuleID="SD0058" Active="Yes"/>
                <val:ValidationRuleRef RuleID="SD0059" Active="Yes"/>
                <val:ValidationRuleRef RuleID="SD0060" Active="Yes"/>
                <val:ValidationRuleRef RuleID="SD0062" Active="Yes"/>
                <val:ValidationRuleRef RuleID="SD1005" Active="Yes"/>
                <val:ValidationRuleRef RuleID="SD1021" Active="Yes"/>
                <val:ValidationRuleRef RuleID="SD1029" Active="Yes"/>
                <val:ValidationRuleRef RuleID="SD1039" Active="Yes"/>
                <val:ValidationRuleRef RuleID="SD1040" Active="Yes"/>
                <val:ValidationRuleRef RuleID="SD1041" Active="Yes"/>
                <val:ValidationRuleRef RuleID="SD1063" Active="Yes"/>
                <val:ValidationRuleRef RuleID="SD1071" Active="Yes"/>
                <val:ValidationRuleRef RuleID="SD1073" Active="Yes"/>
                <val:ValidationRuleRef RuleID="SD1074" Active="Yes"/>
                <val:ValidationRuleRef RuleID="SD1075" Active="Yes"/>
                <val:ValidationRuleRef RuleID="SD1076" Active="Yes"/>
                <val:ValidationRuleRef RuleID="SD1078" Active="Yes"/>
                <val:ValidationRuleRef RuleID="SD1079" Active="Yes"/>
                <val:ValidationRuleRef RuleID="SD1082" Active="Yes"/>
                <val:ValidationRuleRef RuleID="SD1098" Active="Yes"/>
                <val:ValidationRuleRef RuleID="SD1099" Active="Yes"/>
                <val:ValidationRuleRef RuleID="SD1150" Active="Yes"/>
                <val:ValidationRuleRef RuleID="SD1151" Active="Yes"/>
                <val:ValidationRuleRef RuleID="SD1152" Active="Yes"/>
                <val:ValidationRuleRef RuleID="SD1228" Active="Yes"/>
                <val:ValidationRuleRef RuleID="SD1229" Active="Yes"/>
                <val:ValidationRuleRef RuleID="SD1230" Active="Yes"/>
                <val:ValidationRuleRef RuleID="SD1231" Active="Yes"/>
                <val:ValidationRuleRef RuleID="SD1286" Active="Yes"/>
                <val:ValidationRuleRef RuleID="SD1300" Active="Yes"/>
                <val:ValidationRuleRef RuleID="SD1324" Active="Yes"/>
                <val:ValidationRuleRef RuleID="SD1325" Active="Yes"/>
            </ItemGroupDef>
            <ItemGroupDef OID="IG.TM" Name="TM" Repeating="No" IsReferenceData="Yes" Purpose="Tabulation" def:Structure="One record per Disease Milestone type" def:Class="TRIAL DESIGN" def:ArchiveLocationID="Location.TM">
                <Description>
                    <TranslatedText xml:lang="en">Trial Disease Milestones</TranslatedText>
                </Description>
                <ItemRef ItemOID="IT.TM.STUDYID" OrderNumber="1" Mandatory="Yes" KeySequence="1" Role="Identifier" val:Core="Required"/>
                <ItemRef ItemOID="IT.TM.DOMAIN" OrderNumber="2" Mandatory="Yes" Role="Identifier" val:Core="Required"/>
                <ItemRef ItemOID="IT.TM.MIDSTYPE" OrderNumber="3" Mandatory="Yes" KeySequence="2" Role="Topic" val:Core="Required"/>
                <ItemRef ItemOID="IT.TM.TMDEF" OrderNumber="4" Mandatory="Yes" Role="Variable Qualifier" val:Core="Required"/>
                <ItemRef ItemOID="IT.TM.TMRPT" OrderNumber="5" Mandatory="Yes" Role="Record Qualifier" val:Core="Required"/>
                <def:leaf ID="Location.TM" xlink:href="tm.xpt">
                    <def:title>tm.xpt</def:title>
                </def:leaf>
                <val:ValidationRuleRef RuleID="CT2001" Active="Yes"/>
                <val:ValidationRuleRef RuleID="CT2002" Active="Yes"/>
                <val:ValidationRuleRef RuleID="CT2003" Active="Yes"/>
                <val:ValidationRuleRef RuleID="CT2004" Active="Yes"/>
                <val:ValidationRuleRef RuleID="CT2005" Active="Yes"/>
                <val:ValidationRuleRef RuleID="CT2006" Active="Yes"/>
                <val:ValidationRuleRef RuleID="SD0001" Active="Yes"/>
                <val:ValidationRuleRef RuleID="SD0002" Active="Yes"/>
                <val:ValidationRuleRef RuleID="SD0004" Active="Yes"/>
                <val:ValidationRuleRef RuleID="SD0037" Active="Yes"/>
                <val:ValidationRuleRef RuleID="SD0054" Active="Yes"/>
                <val:ValidationRuleRef RuleID="SD0055" Active="Yes"/>
                <val:ValidationRuleRef RuleID="SD0056" Active="Yes"/>
                <val:ValidationRuleRef RuleID="SD0057" Active="Yes"/>
                <val:ValidationRuleRef RuleID="SD0058" Active="Yes"/>
                <val:ValidationRuleRef RuleID="SD0059" Active="Yes"/>
                <val:ValidationRuleRef RuleID="SD0060" Active="Yes"/>
                <val:ValidationRuleRef RuleID="SD0062" Active="Yes"/>
                <val:ValidationRuleRef RuleID="SD1005" Active="Yes"/>
                <val:ValidationRuleRef RuleID="SD1011" Active="Yes"/>
                <val:ValidationRuleRef RuleID="SD1021" Active="Yes"/>
                <val:ValidationRuleRef RuleID="SD1063" Active="Yes"/>
                <val:ValidationRuleRef RuleID="SD1071" Active="Yes"/>
                <val:ValidationRuleRef RuleID="SD1073" Active="Yes"/>
                <val:ValidationRuleRef RuleID="SD1074" Active="Yes"/>
                <val:ValidationRuleRef RuleID="SD1075" Active="Yes"/>
                <val:ValidationRuleRef RuleID="SD1076" Active="Yes"/>
                <val:ValidationRuleRef RuleID="SD1078" Active="Yes"/>
                <val:ValidationRuleRef RuleID="SD1079" Active="Yes"/>
                <val:ValidationRuleRef RuleID="SD1082" Active="Yes"/>
                <val:ValidationRuleRef RuleID="SD1152" Active="Yes"/>
                <val:ValidationRuleRef RuleID="SD1228" Active="Yes"/>
                <val:ValidationRuleRef RuleID="SD1229" Active="Yes"/>
                <val:ValidationRuleRef RuleID="SD1230" Active="Yes"/>
                <val:ValidationRuleRef RuleID="SD1231" Active="Yes"/>
                <val:ValidationRuleRef RuleID="SD1300" Active="Yes"/>
                <val:ValidationRuleRef RuleID="SD1324" Active="Yes"/>
                <val:ValidationRuleRef RuleID="SD1325" Active="Yes"/>
            </ItemGroupDef>
            <ItemGroupDef OID="IG.TS" Name="TS" Repeating="No" IsReferenceData="Yes" Purpose="Tabulation" def:Structure="One record per trial summary parameter value" def:Class="TRIAL DESIGN" def:ArchiveLocationID="Location.TS">
                <Description>
                    <TranslatedText xml:lang="en">Trial Summary</TranslatedText>
                </Description>
                <ItemRef ItemOID="IT.TS.STUDYID" OrderNumber="1" Mandatory="Yes" KeySequence="1" Role="Identifier" val:Core="Required"/>
                <ItemRef ItemOID="IT.TS.DOMAIN" OrderNumber="2" Mandatory="Yes" Role="Identifier" val:Core="Required"/>
                <ItemRef ItemOID="IT.TS.TSSEQ" OrderNumber="3" Mandatory="Yes" KeySequence="3" Role="Identifier" val:Core="Required"/>
                <ItemRef ItemOID="IT.TS.TSGRPID" OrderNumber="4" Mandatory="No" Role="Identifier" val:Core="Permissible"/>
                <ItemRef ItemOID="IT.TS.TSPARMCD" OrderNumber="5" Mandatory="Yes" KeySequence="2" Role="Topic" val:Core="Required"/>
                <ItemRef ItemOID="IT.TS.TSPARM" OrderNumber="6" Mandatory="Yes" Role="Synonym Qualifier" val:Core="Required"/>
                <ItemRef ItemOID="IT.TS.TSVAL" OrderNumber="7" Mandatory="No" Role="Result Qualifier" val:Core="Expected"/>
                <ItemRef ItemOID="IT.TS.TSVAL1" OrderNumber="8" Mandatory="No" Role="Result Qualifier" val:Core="Model Permissible"/>
                <ItemRef ItemOID="IT.TS.TSVAL2" OrderNumber="9" Mandatory="No" Role="Result Qualifier" val:Core="Model Permissible"/>
                <ItemRef ItemOID="IT.TS.TSVAL3" OrderNumber="10" Mandatory="No" Role="Result Qualifier" val:Core="Model Permissible"/>
                <ItemRef ItemOID="IT.TS.TSVAL4" OrderNumber="11" Mandatory="No" Role="Result Qualifier" val:Core="Model Permissible"/>
                <ItemRef ItemOID="IT.TS.TSVAL5" OrderNumber="12" Mandatory="No" Role="Result Qualifier" val:Core="Model Permissible"/>
                <ItemRef ItemOID="IT.TS.TSVAL6" OrderNumber="13" Mandatory="No" Role="Result Qualifier" val:Core="Model Permissible"/>
                <ItemRef ItemOID="IT.TS.TSVAL7" OrderNumber="14" Mandatory="No" Role="Result Qualifier" val:Core="Model Permissible"/>
                <ItemRef ItemOID="IT.TS.TSVAL8" OrderNumber="15" Mandatory="No" Role="Result Qualifier" val:Core="Model Permissible"/>
                <ItemRef ItemOID="IT.TS.TSVAL9" OrderNumber="16" Mandatory="No" Role="Result Qualifier" val:Core="Model Permissible"/>
                <ItemRef ItemOID="IT.TS.TSVAL10" OrderNumber="17" Mandatory="No" Role="Result Qualifier" val:Core="Model Permissible"/>
                <ItemRef ItemOID="IT.TS.TSVALNF" OrderNumber="18" Mandatory="No" Role="Result Qualifier" val:Core="Permissible"/>
                <ItemRef ItemOID="IT.TS.TSVALCD" OrderNumber="19" Mandatory="No" Role="Result Qualifier" val:Core="Expected"/>
                <ItemRef ItemOID="IT.TS.TSVCDREF" OrderNumber="20" Mandatory="No" Role="Result Qualifier" val:Core="Expected"/>
                <ItemRef ItemOID="IT.TS.TSVCDVER" OrderNumber="21" Mandatory="No" Role="Result Qualifier" val:Core="Expected"/>
                <def:leaf ID="Location.TS" xlink:href="ts.xpt">
                    <def:title>ts.xpt</def:title>
                </def:leaf>
                <val:ValidationRuleRef RuleID="CT2001" Active="Yes"/>
                <val:ValidationRuleRef RuleID="CT2002" Active="Yes"/>
                <val:ValidationRuleRef RuleID="CT2003" Active="Yes"/>
                <val:ValidationRuleRef RuleID="CT2004" Active="Yes"/>
                <val:ValidationRuleRef RuleID="CT2005" Active="Yes"/>
                <val:ValidationRuleRef RuleID="CT2006" Active="Yes"/>
                <val:ValidationRuleRef RuleID="SD0001" Active="Yes"/>
                <val:ValidationRuleRef RuleID="SD0002" Active="Yes"/>
                <val:ValidationRuleRef RuleID="SD0004" Active="Yes"/>
                <val:ValidationRuleRef RuleID="SD0019" Active="Yes"/>
                <val:ValidationRuleRef RuleID="SD0020" Active="Yes"/>
                <val:ValidationRuleRef RuleID="SD0037" Active="Yes"/>
                <val:ValidationRuleRef RuleID="SD0054" Active="Yes"/>
                <val:ValidationRuleRef RuleID="SD0055" Active="Yes"/>
                <val:ValidationRuleRef RuleID="SD0056" Active="Yes"/>
                <val:ValidationRuleRef RuleID="SD0057" Active="Yes"/>
                <val:ValidationRuleRef RuleID="SD0058" Active="Yes"/>
                <val:ValidationRuleRef RuleID="SD0059" Active="Yes"/>
                <val:ValidationRuleRef RuleID="SD0060" Active="Yes"/>
                <val:ValidationRuleRef RuleID="SD0062" Active="Yes"/>
                <val:ValidationRuleRef RuleID="SD1005" Active="Yes"/>
                <val:ValidationRuleRef RuleID="SD1021" Active="Yes"/>
                <val:ValidationRuleRef RuleID="SD1029" Active="Yes"/>
                <val:ValidationRuleRef RuleID="SD1038" Active="Yes"/>
                <val:ValidationRuleRef RuleID="SD1063" Active="Yes"/>
                <val:ValidationRuleRef RuleID="SD1069" Active="Yes"/>
                <val:ValidationRuleRef RuleID="SD1070" Active="Yes"/>
                <val:ValidationRuleRef RuleID="SD1071" Active="Yes"/>
                <val:ValidationRuleRef RuleID="SD1073" Active="Yes"/>
                <val:ValidationRuleRef RuleID="SD1074" Active="Yes"/>
                <val:ValidationRuleRef RuleID="SD1075" Active="Yes"/>
                <val:ValidationRuleRef RuleID="SD1076" Active="Yes"/>
                <val:ValidationRuleRef RuleID="SD1078" Active="Yes"/>
                <val:ValidationRuleRef RuleID="SD1079" Active="Yes"/>
                <val:ValidationRuleRef RuleID="SD1082" Active="Yes"/>
                <val:ValidationRuleRef RuleID="SD1152" Active="Yes"/>
                <val:ValidationRuleRef RuleID="SD1214" Active="Yes"/>
                <val:ValidationRuleRef RuleID="SD1215" Active="Yes"/>
                <val:ValidationRuleRef RuleID="SD1216" Active="Yes"/>
                <val:ValidationRuleRef RuleID="SD1217" Active="Yes"/>
                <val:ValidationRuleRef RuleID="SD1218" Active="Yes"/>
                <val:ValidationRuleRef RuleID="SD1219" Active="Yes"/>
                <val:ValidationRuleRef RuleID="SD1220" Active="Yes"/>
                <val:ValidationRuleRef RuleID="SD1221" Active="Yes"/>
                <val:ValidationRuleRef RuleID="SD1222" Active="Yes"/>
                <val:ValidationRuleRef RuleID="SD1223" Active="Yes"/>
                <val:ValidationRuleRef RuleID="SD1224" Active="Yes"/>
                <val:ValidationRuleRef RuleID="SD1225" Active="Yes"/>
                <val:ValidationRuleRef RuleID="SD1227" Active="Yes"/>
                <val:ValidationRuleRef RuleID="SD1228" Active="Yes"/>
                <val:ValidationRuleRef RuleID="SD1229" Active="Yes"/>
                <val:ValidationRuleRef RuleID="SD1230" Active="Yes"/>
                <val:ValidationRuleRef RuleID="SD1231" Active="Yes"/>
                <val:ValidationRuleRef RuleID="SD1260" Active="Yes"/>
                <val:ValidationRuleRef RuleID="SD1268" Active="Yes"/>
                <val:ValidationRuleRef RuleID="SD1269" Active="Yes"/>
                <val:ValidationRuleRef RuleID="SD1278" Active="Yes"/>
                <val:ValidationRuleRef RuleID="SD1295" Active="Yes"/>
                <val:ValidationRuleRef RuleID="SD1296" Active="Yes"/>
                <val:ValidationRuleRef RuleID="SD1297" Active="Yes"/>
                <val:ValidationRuleRef RuleID="SD1300" Active="Yes"/>
                <val:ValidationRuleRef RuleID="SD1306" Active="Yes"/>
                <val:ValidationRuleRef RuleID="SD1307" Active="Yes"/>
                <val:ValidationRuleRef RuleID="SD1308" Active="Yes"/>
                <val:ValidationRuleRef RuleID="SD1309" Active="Yes"/>
                <val:ValidationRuleRef RuleID="SD1310" Active="Yes"/>
                <val:ValidationRuleRef RuleID="SD1311" Active="Yes"/>
                <val:ValidationRuleRef RuleID="SD1312" Active="Yes"/>
                <val:ValidationRuleRef RuleID="SD1323" Active="Yes"/>
                <val:ValidationRuleRef RuleID="SD1324" Active="Yes"/>
                <val:ValidationRuleRef RuleID="SD1325" Active="Yes"/>
                <val:ValidationRuleRef RuleID="SD2017" Active="Yes"/>
                <val:ValidationRuleRef RuleID="SD2018" Active="Yes"/>
                <val:ValidationRuleRef RuleID="SD2201" Active="Yes"/>
                <val:ValidationRuleRef RuleID="SD2202" Active="Yes"/>
                <val:ValidationRuleRef RuleID="SD2203" Active="Yes"/>
                <val:ValidationRuleRef RuleID="SD2204" Active="Yes"/>
                <val:ValidationRuleRef RuleID="SD2205" Active="Yes"/>
                <val:ValidationRuleRef RuleID="SD2206" Active="Yes"/>
                <val:ValidationRuleRef RuleID="SD2207" Active="Yes"/>
                <val:ValidationRuleRef RuleID="SD2208" Active="Yes"/>
                <val:ValidationRuleRef RuleID="SD2209" Active="Yes"/>
                <val:ValidationRuleRef RuleID="SD2210" Active="Yes"/>
                <val:ValidationRuleRef RuleID="SD2211" Active="Yes"/>
                <val:ValidationRuleRef RuleID="SD2212" Active="Yes"/>
                <val:ValidationRuleRef RuleID="SD2213" Active="Yes"/>
                <val:ValidationRuleRef RuleID="SD2214" Active="Yes"/>
                <val:ValidationRuleRef RuleID="SD2215" Active="Yes"/>
                <val:ValidationRuleRef RuleID="SD2216" Active="Yes"/>
                <val:ValidationRuleRef RuleID="SD2217" Active="Yes"/>
                <val:ValidationRuleRef RuleID="SD2218" Active="Yes"/>
                <val:ValidationRuleRef RuleID="SD2219" Active="Yes"/>
                <val:ValidationRuleRef RuleID="SD2221" Active="Yes"/>
                <val:ValidationRuleRef RuleID="SD2222" Active="Yes"/>
                <val:ValidationRuleRef RuleID="SD2223" Active="Yes"/>
                <val:ValidationRuleRef RuleID="SD2224" Active="Yes"/>
                <val:ValidationRuleRef RuleID="SD2225" Active="Yes"/>
                <val:ValidationRuleRef RuleID="SD2226" Active="Yes"/>
                <val:ValidationRuleRef RuleID="SD2227" Active="Yes"/>
                <val:ValidationRuleRef RuleID="SD2228" Active="Yes"/>
                <val:ValidationRuleRef RuleID="SD2229" Active="Yes"/>
                <val:ValidationRuleRef RuleID="SD2230" Active="Yes"/>
                <val:ValidationRuleRef RuleID="SD2231" Active="Yes"/>
                <val:ValidationRuleRef RuleID="SD2232" Active="Yes"/>
                <val:ValidationRuleRef RuleID="SD2233" Active="Yes"/>
                <val:ValidationRuleRef RuleID="SD2234" Active="Yes"/>
                <val:ValidationRuleRef RuleID="SD2235" Active="Yes"/>
                <val:ValidationRuleRef RuleID="SD2240" Active="Yes"/>
                <val:ValidationRuleRef RuleID="SD2241" Active="Yes"/>
                <val:ValidationRuleRef RuleID="SD2242" Active="Yes"/>
                <val:ValidationRuleRef RuleID="SD2243" Active="Yes"/>
                <val:ValidationRuleRef RuleID="SD2244" Active="Yes"/>
                <val:ValidationRuleRef RuleID="SD2245" Active="Yes"/>
                <val:ValidationRuleRef RuleID="SD2246" Active="Yes"/>
                <val:ValidationRuleRef RuleID="SD2247" Active="Yes"/>
                <val:ValidationRuleRef RuleID="SD2247A" Active="Yes"/>
                <val:ValidationRuleRef RuleID="SD2248" Active="Yes"/>
                <val:ValidationRuleRef RuleID="SD2249" Active="Yes"/>
                <val:ValidationRuleRef RuleID="SD2250" Active="Yes"/>
                <val:ValidationRuleRef RuleID="SD2251" Active="Yes"/>
                <val:ValidationRuleRef RuleID="SD2252" Active="Yes"/>
                <val:ValidationRuleRef RuleID="SD2253" Active="Yes"/>
                <val:ValidationRuleRef RuleID="SD2254" Active="Yes"/>
                <val:ValidationRuleRef RuleID="SD2255" Active="Yes"/>
                <val:ValidationRuleRef RuleID="SD2256" Active="Yes"/>
                <val:ValidationRuleRef RuleID="SD2257" Active="Yes"/>
                <val:ValidationRuleRef RuleID="SD2258" Active="Yes"/>
                <val:ValidationRuleRef RuleID="SD2259" Active="Yes"/>
                <val:ValidationRuleRef RuleID="SD2260" Active="Yes"/>
                <val:ValidationRuleRef RuleID="SD2261" Active="Yes"/>
                <val:ValidationRuleRef RuleID="SD2262" Active="Yes"/>
                <val:ValidationRuleRef RuleID="SD2263" Active="Yes"/>
                <val:ValidationRuleRef RuleID="SD2264" Active="Yes"/>
                <val:ValidationRuleRef RuleID="SD2265" Active="Yes"/>
                <val:ValidationRuleRef RuleID="SD2266" Active="Yes"/>
                <val:ValidationRuleRef RuleID="SD2267" Active="Yes"/>
                <val:ValidationRuleRef RuleID="SD2268" Active="Yes"/>
                <val:ValidationRuleRef RuleID="SD2269" Active="Yes"/>
                <val:ValidationRuleRef RuleID="SD2273" Active="Yes"/>
                <val:ValidationRuleRef RuleID="SD2274" Active="Yes"/>
                <val:ValidationRuleRef RuleID="SD2275" Active="Yes"/>
                <val:ValidationRuleRef RuleID="SD2276" Active="Yes"/>
                <val:ValidationRuleRef RuleID="SD2277" Active="Yes"/>
                <val:ValidationRuleRef RuleID="SD2278" Active="Yes"/>
                <val:ValidationRuleRef RuleID="SD2279" Active="Yes"/>
                <val:ValidationRuleRef RuleID="SD2280" Active="Yes"/>
                <val:ValidationRuleRef RuleID="SD2281" Active="Yes"/>
                <val:ValidationRuleRef RuleID="SD2282" Active="Yes"/>
                <val:ValidationRuleRef RuleID="SD2283" Active="Yes"/>
            </ItemGroupDef>
            <ItemGroupDef OID="IG.TV" Name="TV" Repeating="No" IsReferenceData="Yes" Purpose="Tabulation" def:Structure="One record per planned Visit per Arm" def:Class="TRIAL DESIGN" def:ArchiveLocationID="Location.TV">
                <Description>
                    <TranslatedText xml:lang="en">Trial Visits</TranslatedText>
                </Description>
                <ItemRef ItemOID="IT.TV.STUDYID" OrderNumber="1" Mandatory="Yes" KeySequence="1" Role="Identifier" val:Core="Required"/>
                <ItemRef ItemOID="IT.TV.DOMAIN" OrderNumber="2" Mandatory="Yes" Role="Identifier" val:Core="Required"/>
                <ItemRef ItemOID="IT.TV.VISITNUM" OrderNumber="3" Mandatory="Yes" KeySequence="2" Role="Topic" val:Core="Required"/>
                <ItemRef ItemOID="IT.TV.VISIT" OrderNumber="4" Mandatory="Yes" Role="Synonym Qualifier" val:Core="Required"/>
                <ItemRef ItemOID="IT.TV.VISITDY" OrderNumber="5" Mandatory="No" Role="Timing" val:Core="Permissible"/>
                <ItemRef ItemOID="IT.TV.ARMCD" OrderNumber="6" Mandatory="No" KeySequence="3" Role="Record Qualifier" val:Core="Expected"/>
                <ItemRef ItemOID="IT.TV.ARM" OrderNumber="7" Mandatory="No" Role="Synonym Qualifier" val:Core="Permissible"/>
                <ItemRef ItemOID="IT.TV.TVSTRL" OrderNumber="8" Mandatory="Yes" Role="Rule" val:Core="Required"/>
                <ItemRef ItemOID="IT.TV.TVENRL" OrderNumber="9" Mandatory="No" Role="Rule" val:Core="Permissible"/>
                <def:leaf ID="Location.TV" xlink:href="tv.xpt">
                    <def:title>tv.xpt</def:title>
                </def:leaf>
                <val:ValidationRuleRef RuleID="CT2001" Active="Yes"/>
                <val:ValidationRuleRef RuleID="CT2002" Active="Yes"/>
                <val:ValidationRuleRef RuleID="CT2003" Active="Yes"/>
                <val:ValidationRuleRef RuleID="CT2004" Active="Yes"/>
                <val:ValidationRuleRef RuleID="CT2005" Active="Yes"/>
                <val:ValidationRuleRef RuleID="CT2006" Active="Yes"/>
                <val:ValidationRuleRef RuleID="SD0001" Active="Yes"/>
                <val:ValidationRuleRef RuleID="SD0002" Active="Yes"/>
                <val:ValidationRuleRef RuleID="SD0004" Active="Yes"/>
                <val:ValidationRuleRef RuleID="SD0037" Active="Yes"/>
                <val:ValidationRuleRef RuleID="SD0051" Active="Yes"/>
                <val:ValidationRuleRef RuleID="SD0052" Active="Yes"/>
                <val:ValidationRuleRef RuleID="SD0054" Active="Yes"/>
                <val:ValidationRuleRef RuleID="SD0055" Active="Yes"/>
                <val:ValidationRuleRef RuleID="SD0056" Active="Yes"/>
                <val:ValidationRuleRef RuleID="SD0057" Active="Yes"/>
                <val:ValidationRuleRef RuleID="SD0058" Active="Yes"/>
                <val:ValidationRuleRef RuleID="SD0059" Active="Yes"/>
                <val:ValidationRuleRef RuleID="SD0060" Active="Yes"/>
                <val:ValidationRuleRef RuleID="SD0062" Active="Yes"/>
                <val:ValidationRuleRef RuleID="SD1004" Active="Yes"/>
                <val:ValidationRuleRef RuleID="SD1005" Active="Yes"/>
                <val:ValidationRuleRef RuleID="SD1021" Active="Yes"/>
                <val:ValidationRuleRef RuleID="SD1033" Active="Yes"/>
                <val:ValidationRuleRef RuleID="SD1034" Active="Yes"/>
                <val:ValidationRuleRef RuleID="SD1053" Active="Yes"/>
                <val:ValidationRuleRef RuleID="SD1063" Active="Yes"/>
                <val:ValidationRuleRef RuleID="SD1071" Active="Yes"/>
                <val:ValidationRuleRef RuleID="SD1073" Active="Yes"/>
                <val:ValidationRuleRef RuleID="SD1074" Active="Yes"/>
                <val:ValidationRuleRef RuleID="SD1075" Active="Yes"/>
                <val:ValidationRuleRef RuleID="SD1076" Active="Yes"/>
                <val:ValidationRuleRef RuleID="SD1078" Active="Yes"/>
                <val:ValidationRuleRef RuleID="SD1079" Active="Yes"/>
                <val:ValidationRuleRef RuleID="SD1082" Active="Yes"/>
                <val:ValidationRuleRef RuleID="SD1152" Active="Yes"/>
                <val:ValidationRuleRef RuleID="SD1228" Active="Yes"/>
                <val:ValidationRuleRef RuleID="SD1229" Active="Yes"/>
                <val:ValidationRuleRef RuleID="SD1230" Active="Yes"/>
                <val:ValidationRuleRef RuleID="SD1231" Active="Yes"/>
                <val:ValidationRuleRef RuleID="SD1300" Active="Yes"/>
                <val:ValidationRuleRef RuleID="SD1324" Active="Yes"/>
                <val:ValidationRuleRef RuleID="SD1325" Active="Yes"/>
            </ItemGroupDef>
            <ItemGroupDef OID="IG.CO" Name="CO" Repeating="Yes" IsReferenceData="No" Purpose="Tabulation" def:Structure="One record per comment per subject" def:Class="SPECIAL PURPOSE" def:ArchiveLocationID="Location.CO">
                <Description>
                    <TranslatedText xml:lang="en">Comments</TranslatedText>
                </Description>
                <ItemRef ItemOID="IT.CO.STUDYID" OrderNumber="1" Mandatory="Yes" KeySequence="1" Role="Identifier" val:Core="Required"/>
                <ItemRef ItemOID="IT.CO.DOMAIN" OrderNumber="2" Mandatory="Yes" Role="Identifier" val:Core="Required"/>
                <ItemRef ItemOID="IT.CO.RDOMAIN" OrderNumber="3" Mandatory="No" KeySequence="2" Role="Record Qualifier" val:Core="Permissible"/>
                <ItemRef ItemOID="IT.CO.USUBJID" OrderNumber="4" Mandatory="Yes" KeySequence="3" Role="Identifier" val:Core="Required"/>
                <ItemRef ItemOID="IT.CO.POOLID" OrderNumber="5" Mandatory="No" Role="Identifier" val:Core="Model Permissible"/>
                <ItemRef ItemOID="IT.CO.SPDEVID" OrderNumber="6" Mandatory="No" Role="Identifier" val:Core="Model Permissible"/>
                <ItemRef ItemOID="IT.CO.COSEQ" OrderNumber="7" Mandatory="Yes" KeySequence="4" Role="Identifier" val:Core="Required"/>
                <ItemRef ItemOID="IT.CO.COGRPID" OrderNumber="8" Mandatory="No" Role="Identifier" val:Core="Model Permissible"/>
                <ItemRef ItemOID="IT.CO.COREFID" OrderNumber="9" Mandatory="No" Role="Identifier" val:Core="Model Permissible"/>
                <ItemRef ItemOID="IT.CO.CORECID" OrderNumber="10" Mandatory="No" Role="Identifier" val:Core="Model Permissible"/>
                <ItemRef ItemOID="IT.CO.COSPID" OrderNumber="11" Mandatory="No" Role="Identifier" val:Core="Model Permissible"/>
                <ItemRef ItemOID="IT.CO.COLNKID" OrderNumber="12" Mandatory="No" Role="Identifier" val:Core="Model Permissible"/>
                <ItemRef ItemOID="IT.CO.COLNKGRP" OrderNumber="13" Mandatory="No" Role="Identifier" val:Core="Model Permissible"/>
                <ItemRef ItemOID="IT.CO.IDVAR" OrderNumber="14" Mandatory="No" Role="Record Qualifier" val:Core="Permissible"/>
                <ItemRef ItemOID="IT.CO.IDVARVAL" OrderNumber="15" Mandatory="No" Role="Record Qualifier" val:Core="Permissible"/>
                <ItemRef ItemOID="IT.CO.COREF" OrderNumber="16" Mandatory="No" Role="Record Qualifier" val:Core="Permissible"/>
                <ItemRef ItemOID="IT.CO.COVAL" OrderNumber="17" Mandatory="Yes" Role="Topic" val:Core="Required"/>
                <ItemRef ItemOID="IT.CO.COVAL1" OrderNumber="18" Mandatory="No" Role="Topic" val:Core="Model Permissible"/>
                <ItemRef ItemOID="IT.CO.COVAL2" OrderNumber="19" Mandatory="No" Role="Topic" val:Core="Model Permissible"/>
                <ItemRef ItemOID="IT.CO.COVAL3" OrderNumber="20" Mandatory="No" Role="Topic" val:Core="Model Permissible"/>
                <ItemRef ItemOID="IT.CO.COVAL4" OrderNumber="21" Mandatory="No" Role="Topic" val:Core="Model Permissible"/>
                <ItemRef ItemOID="IT.CO.COVAL5" OrderNumber="22" Mandatory="No" Role="Topic" val:Core="Model Permissible"/>
                <ItemRef ItemOID="IT.CO.COVAL6" OrderNumber="23" Mandatory="No" Role="Topic" val:Core="Model Permissible"/>
                <ItemRef ItemOID="IT.CO.COVAL7" OrderNumber="24" Mandatory="No" Role="Topic" val:Core="Model Permissible"/>
                <ItemRef ItemOID="IT.CO.COVAL8" OrderNumber="25" Mandatory="No" Role="Topic" val:Core="Model Permissible"/>
                <ItemRef ItemOID="IT.CO.COVAL9" OrderNumber="26" Mandatory="No" Role="Topic" val:Core="Model Permissible"/>
                <ItemRef ItemOID="IT.CO.COVAL10" OrderNumber="27" Mandatory="No" Role="Topic" val:Core="Model Permissible"/>
                <ItemRef ItemOID="IT.CO.COEVAL" OrderNumber="28" Mandatory="No" Role="Record Qualifier" val:Core="Permissible"/>
                <ItemRef ItemOID="IT.CO.COEVALID" OrderNumber="29" Mandatory="No" Role="Record Qualifier" val:Core="Permissible"/>
                <ItemRef ItemOID="IT.CO.VISITNUM" OrderNumber="30" Mandatory="No" Role="Timing" val:Core="Model Permissible"/>
                <ItemRef ItemOID="IT.CO.VISIT" OrderNumber="31" Mandatory="No" Role="Timing" val:Core="Model Permissible"/>
                <ItemRef ItemOID="IT.CO.VISITDY" OrderNumber="32" Mandatory="No" Role="Timing" val:Core="Model Permissible"/>
                <ItemRef ItemOID="IT.CO.TAETORD" OrderNumber="33" Mandatory="No" Role="Timing" val:Core="Model Permissible"/>
                <ItemRef ItemOID="IT.CO.CODTC" OrderNumber="34" Mandatory="No" Role="Timing" val:Core="Permissible"/>
                <ItemRef ItemOID="IT.CO.CODY" OrderNumber="35" Mandatory="No" Role="Timing" val:Core="Permissible"/>
                <ItemRef ItemOID="IT.CO.COTPT" OrderNumber="36" Mandatory="No" Role="Timing" val:Core="Model Permissible"/>
                <ItemRef ItemOID="IT.CO.COTPTNUM" OrderNumber="37" Mandatory="No" Role="Timing" val:Core="Model Permissible"/>
                <ItemRef ItemOID="IT.CO.COELTM" OrderNumber="38" Mandatory="No" Role="Timing" val:Core="Model Permissible"/>
                <ItemRef ItemOID="IT.CO.COTPTREF" OrderNumber="39" Mandatory="No" Role="Timing" val:Core="Model Permissible"/>
                <ItemRef ItemOID="IT.CO.CORFTDTC" OrderNumber="40" Mandatory="No" Role="Timing" val:Core="Model Permissible"/>
                <def:leaf ID="Location.CO" xlink:href="co.xpt">
                    <def:title>co.xpt</def:title>
                </def:leaf>
                <val:ValidationRuleRef RuleID="CT2001" Active="Yes"/>
                <val:ValidationRuleRef RuleID="CT2002" Active="Yes"/>
                <val:ValidationRuleRef RuleID="CT2003" Active="Yes"/>
                <val:ValidationRuleRef RuleID="CT2004" Active="Yes"/>
                <val:ValidationRuleRef RuleID="CT2005" Active="Yes"/>
                <val:ValidationRuleRef RuleID="CT2006" Active="Yes"/>
                <val:ValidationRuleRef RuleID="SD0001" Active="Yes"/>
                <val:ValidationRuleRef RuleID="SD0002" Active="Yes"/>
                <val:ValidationRuleRef RuleID="SD0003" Active="Yes"/>
                <val:ValidationRuleRef RuleID="SD0004" Active="Yes"/>
                <val:ValidationRuleRef RuleID="SD0005" Active="Yes"/>
                <val:ValidationRuleRef RuleID="SD0032" Active="Yes"/>
                <val:ValidationRuleRef RuleID="SD0033" Active="Yes"/>
                <val:ValidationRuleRef RuleID="SD0034" Active="Yes"/>
                <val:ValidationRuleRef RuleID="SD0037" Active="Yes"/>
                <val:ValidationRuleRef RuleID="SD0038" Active="Yes"/>
                <val:ValidationRuleRef RuleID="SD0051" Active="Yes"/>
                <val:ValidationRuleRef RuleID="SD0052" Active="Yes"/>
                <val:ValidationRuleRef RuleID="SD0054" Active="Yes"/>
                <val:ValidationRuleRef RuleID="SD0055" Active="Yes"/>
                <val:ValidationRuleRef RuleID="SD0056" Active="Yes"/>
                <val:ValidationRuleRef RuleID="SD0057" Active="Yes"/>
                <val:ValidationRuleRef RuleID="SD0058" Active="Yes"/>
                <val:ValidationRuleRef RuleID="SD0059" Active="Yes"/>
                <val:ValidationRuleRef RuleID="SD0060" Active="Yes"/>
                <val:ValidationRuleRef RuleID="SD0062" Active="Yes"/>
                <val:ValidationRuleRef RuleID="SD0064" Active="Yes"/>
                <val:ValidationRuleRef RuleID="SD0065" Active="Yes"/>
                <val:ValidationRuleRef RuleID="SD0072" Active="Yes"/>
                <val:ValidationRuleRef RuleID="SD0075" Active="Yes"/>
                <val:ValidationRuleRef RuleID="SD0077" Active="Yes"/>
                <val:ValidationRuleRef RuleID="SD1005" Active="Yes"/>
                <val:ValidationRuleRef RuleID="SD1008" Active="Yes"/>
                <val:ValidationRuleRef RuleID="SD1011" Active="Yes"/>
                <val:ValidationRuleRef RuleID="SD1014" Active="Yes"/>
                <val:ValidationRuleRef RuleID="SD1021" Active="Yes"/>
                <val:ValidationRuleRef RuleID="SD1023" Active="Yes"/>
                <val:ValidationRuleRef RuleID="SD1063" Active="Yes"/>
                <val:ValidationRuleRef RuleID="SD1065" Active="Yes"/>
                <val:ValidationRuleRef RuleID="SD1071" Active="Yes"/>
                <val:ValidationRuleRef RuleID="SD1073" Active="Yes"/>
                <val:ValidationRuleRef RuleID="SD1074" Active="Yes"/>
                <val:ValidationRuleRef RuleID="SD1075" Active="Yes"/>
                <val:ValidationRuleRef RuleID="SD1076" Active="Yes"/>
                <val:ValidationRuleRef RuleID="SD1078" Active="Yes"/>
                <val:ValidationRuleRef RuleID="SD1079" Active="Yes"/>
                <val:ValidationRuleRef RuleID="SD1082" Active="Yes"/>
                <val:ValidationRuleRef RuleID="SD1083" Active="Yes"/>
                <val:ValidationRuleRef RuleID="SD1084" Active="Yes"/>
                <val:ValidationRuleRef RuleID="SD1085" Active="Yes"/>
                <val:ValidationRuleRef RuleID="SD1086" Active="Yes"/>
                <val:ValidationRuleRef RuleID="SD1119" Active="Yes"/>
                <val:ValidationRuleRef RuleID="SD1125" Active="Yes"/>
                <val:ValidationRuleRef RuleID="SD1126" Active="Yes"/>
                <val:ValidationRuleRef RuleID="SD1127" Active="Yes"/>
                <val:ValidationRuleRef RuleID="SD1149" Active="Yes"/>
                <val:ValidationRuleRef RuleID="SD1152" Active="Yes"/>
                <val:ValidationRuleRef RuleID="SD1203" Active="Yes"/>
                <val:ValidationRuleRef RuleID="SD1228" Active="Yes"/>
                <val:ValidationRuleRef RuleID="SD1229" Active="Yes"/>
                <val:ValidationRuleRef RuleID="SD1230" Active="Yes"/>
                <val:ValidationRuleRef RuleID="SD1231" Active="Yes"/>
                <val:ValidationRuleRef RuleID="SD1233" Active="Yes"/>
                <val:ValidationRuleRef RuleID="SD1238" Active="Yes"/>
                <val:ValidationRuleRef RuleID="SD1245" Active="Yes"/>
                <val:ValidationRuleRef RuleID="SD1246" Active="Yes"/>
                <val:ValidationRuleRef RuleID="SD1282" Active="Yes"/>
                <val:ValidationRuleRef RuleID="SD1291" Active="Yes"/>
                <val:ValidationRuleRef RuleID="SD1292" Active="Yes"/>
                <val:ValidationRuleRef RuleID="SD1300" Active="Yes"/>
                <val:ValidationRuleRef RuleID="SD1324" Active="Yes"/>
                <val:ValidationRuleRef RuleID="SD1325" Active="Yes"/>
                <val:ValidationRuleRef RuleID="SD1380" Active="Yes"/>
                <val:ValidationRuleRef RuleID="SD2024" Active="Yes"/>
                <val:ValidationRuleRef RuleID="SD2270" Active="Yes"/>
            </ItemGroupDef>
            <ItemGroupDef OID="IG.DM" Name="DM" Repeating="No" IsReferenceData="No" Purpose="Tabulation" def:Structure="One record per subject" def:Class="SPECIAL PURPOSE" def:ArchiveLocationID="Location.DM">
                <Description>
                    <TranslatedText xml:lang="en">Demographics</TranslatedText>
                </Description>
                <ItemRef ItemOID="IT.DM.STUDYID" OrderNumber="1" Mandatory="Yes" KeySequence="1" Role="Identifier" val:Core="Required"/>
                <ItemRef ItemOID="IT.DM.DOMAIN" OrderNumber="2" Mandatory="Yes" Role="Identifier" val:Core="Required"/>
                <ItemRef ItemOID="IT.DM.USUBJID" OrderNumber="3" Mandatory="Yes" KeySequence="2" Role="Identifier" val:Core="Required"/>
                <ItemRef ItemOID="IT.DM.SUBJID" OrderNumber="4" Mandatory="Yes" Role="Topic" val:Core="Required"/>
                <ItemRef ItemOID="IT.DM.RFSTDTC" OrderNumber="5" Mandatory="No" Role="Record Qualifier" val:Core="Expected"/>
                <ItemRef ItemOID="IT.DM.RFENDTC" OrderNumber="6" Mandatory="No" Role="Record Qualifier" val:Core="Expected"/>
                <ItemRef ItemOID="IT.DM.RFXSTDTC" OrderNumber="7" Mandatory="No" Role="Record Qualifier" val:Core="Expected"/>
                <ItemRef ItemOID="IT.DM.RFXENDTC" OrderNumber="8" Mandatory="No" Role="Record Qualifier" val:Core="Expected"/>
                <ItemRef ItemOID="IT.DM.RFCSTDTC" OrderNumber="9" Mandatory="No" Role="Record Qualifier" val:Core="Permissible"/>
                <ItemRef ItemOID="IT.DM.RFCENDTC" OrderNumber="10" Mandatory="No" Role="Record Qualifier" val:Core="Permissible"/>
                <ItemRef ItemOID="IT.DM.RFICDTC" OrderNumber="11" Mandatory="No" Role="Record Qualifier" val:Core="Expected"/>
                <ItemRef ItemOID="IT.DM.RFPENDTC" OrderNumber="12" Mandatory="No" Role="Record Qualifier" val:Core="Expected"/>
                <ItemRef ItemOID="IT.DM.DTHDTC" OrderNumber="13" Mandatory="No" Role="Record Qualifier" val:Core="Expected"/>
                <ItemRef ItemOID="IT.DM.DTHFL" OrderNumber="14" Mandatory="No" Role="Record Qualifier" val:Core="Expected"/>
                <ItemRef ItemOID="IT.DM.SITEID" OrderNumber="15" Mandatory="Yes" Role="Record Qualifier" val:Core="Required"/>
                <ItemRef ItemOID="IT.DM.INVID" OrderNumber="16" Mandatory="No" Role="Record Qualifier" val:Core="Permissible"/>
                <ItemRef ItemOID="IT.DM.INVNAM" OrderNumber="17" Mandatory="No" Role="Synonym Qualifier" val:Core="Permissible"/>
                <ItemRef ItemOID="IT.DM.BRTHDTC" OrderNumber="18" Mandatory="No" Role="Record Qualifier" val:Core="Permissible"/>
                <ItemRef ItemOID="IT.DM.AGE" OrderNumber="19" Mandatory="No" Role="Record Qualifier" val:Core="Expected"/>
                <ItemRef ItemOID="IT.DM.AGETXT" OrderNumber="20" Mandatory="No" Role="Record Qualifier" val:Core="Model Permissible"/>
                <ItemRef ItemOID="IT.DM.AGEU" OrderNumber="21" Mandatory="No" Role="Variable Qualifier" val:Core="Expected"/>
                <ItemRef ItemOID="IT.DM.SEX" OrderNumber="22" Mandatory="Yes" Role="Record Qualifier" val:Core="Required"/>
                <ItemRef ItemOID="IT.DM.RACE" OrderNumber="23" Mandatory="No" Role="Record Qualifier" val:Core="Expected"/>
                <ItemRef ItemOID="IT.DM.ETHNIC" OrderNumber="24" Mandatory="No" Role="Record Qualifier" val:Core="Permissible"/>
                <ItemRef ItemOID="IT.DM.SPECIES" OrderNumber="25" Mandatory="No" Role="Record Qualifier" val:Core="SEND Only"/>
                <ItemRef ItemOID="IT.DM.STRAIN" OrderNumber="26" Mandatory="No" Role="Record Qualifier" val:Core="SEND Only"/>
                <ItemRef ItemOID="IT.DM.SBSTRAIN" OrderNumber="27" Mandatory="No" Role="Record Qualifier" val:Core="SEND Only"/>
                <ItemRef ItemOID="IT.DM.ARMCD" OrderNumber="28" Mandatory="No" Role="Record Qualifier" val:Core="Expected"/>
                <ItemRef ItemOID="IT.DM.ARM" OrderNumber="29" Mandatory="No" Role="Synonym Qualifier" val:Core="Expected"/>
                <ItemRef ItemOID="IT.DM.ACTARMCD" OrderNumber="30" Mandatory="No" Role="Record Qualifier" val:Core="Expected"/>
                <ItemRef ItemOID="IT.DM.ACTARM" OrderNumber="31" Mandatory="No" Role="Synonym Qualifier" val:Core="Expected"/>
                <ItemRef ItemOID="IT.DM.ARMNRS" OrderNumber="32" Mandatory="No" Role="Record Qualifier" val:Core="Expected"/>
                <ItemRef ItemOID="IT.DM.ACTARMUD" OrderNumber="33" Mandatory="No" Role="Record Qualifier" val:Core="Expected"/>
                <ItemRef ItemOID="IT.DM.SETCD" OrderNumber="34" Mandatory="No" Role="Record Qualifier" val:Core="Model Permissible"/>
                <ItemRef ItemOID="IT.DM.RPATHCD" OrderNumber="35" Mandatory="No" Role="Record Qualifier" val:Core="SEND Only"/>
                <ItemRef ItemOID="IT.DM.COUNTRY" OrderNumber="36" Mandatory="Yes" Role="Record Qualifier" val:Core="Required"/>
                <ItemRef ItemOID="IT.DM.DMXFN" OrderNumber="37" Mandatory="No" Role="Record Qualifier" val:Core="Model Permissible"/>
                <ItemRef ItemOID="IT.DM.VISITNUM" OrderNumber="38" Mandatory="No" Role="Timing" val:Core="Model Permissible"/>
                <ItemRef ItemOID="IT.DM.VISIT" OrderNumber="39" Mandatory="No" Role="Timing" val:Core="Model Permissible"/>
                <ItemRef ItemOID="IT.DM.VISITDY" OrderNumber="40" Mandatory="No" Role="Timing" val:Core="Model Permissible"/>
                <ItemRef ItemOID="IT.DM.TAETORD" OrderNumber="41" Mandatory="No" Role="Timing" val:Core="Model Permissible"/>
                <ItemRef ItemOID="IT.DM.EPOCH" OrderNumber="42" Mandatory="No" Role="Timing" val:Core="Prohibited"/>
                <ItemRef ItemOID="IT.DM.RPHASE" OrderNumber="43" Mandatory="No" Role="Timing" val:Core="SEND Only"/>
                <ItemRef ItemOID="IT.DM.RPPLDY" OrderNumber="44" Mandatory="No" Role="Timing" val:Core="SEND Only"/>
                <ItemRef ItemOID="IT.DM.RPPLSTDY" OrderNumber="45" Mandatory="No" Role="Timing" val:Core="SEND Only"/>
                <ItemRef ItemOID="IT.DM.RPPLENDY" OrderNumber="46" Mandatory="No" Role="Timing" val:Core="SEND Only"/>
                <ItemRef ItemOID="IT.DM.DMDTC" OrderNumber="47" Mandatory="No" Role="Timing" val:Core="Permissible"/>
                <ItemRef ItemOID="IT.DM.DMSTDTC" OrderNumber="48" Mandatory="No" Role="Timing" val:Core="Prohibited"/>
                <ItemRef ItemOID="IT.DM.DMENDTC" OrderNumber="49" Mandatory="No" Role="Timing" val:Core="Prohibited"/>
                <ItemRef ItemOID="IT.DM.DMDY" OrderNumber="50" Mandatory="No" Role="Timing" val:Core="Permissible"/>
                <ItemRef ItemOID="IT.DM.DMSTDY" OrderNumber="51" Mandatory="No" Role="Timing" val:Core="Prohibited"/>
                <ItemRef ItemOID="IT.DM.DMENDY" OrderNumber="52" Mandatory="No" Role="Timing" val:Core="Prohibited"/>
                <ItemRef ItemOID="IT.DM.DMNOMDY" OrderNumber="53" Mandatory="No" Role="Timing" val:Core="SEND Only"/>
                <ItemRef ItemOID="IT.DM.DMNOMLBL" OrderNumber="54" Mandatory="No" Role="Timing" val:Core="SEND Only"/>
                <ItemRef ItemOID="IT.DM.DMRPDY" OrderNumber="55" Mandatory="No" Role="Timing" val:Core="SEND Only"/>
                <ItemRef ItemOID="IT.DM.DMRPSTDY" OrderNumber="56" Mandatory="No" Role="Timing" val:Core="SEND Only"/>
                <ItemRef ItemOID="IT.DM.DMRPENDY" OrderNumber="57" Mandatory="No" Role="Timing" val:Core="SEND Only"/>
                <ItemRef ItemOID="IT.DM.DMXDY" OrderNumber="58" Mandatory="No" Role="Timing" val:Core="Prohibited"/>
                <ItemRef ItemOID="IT.DM.DMXSTDY" OrderNumber="59" Mandatory="No" Role="Timing" val:Core="Prohibited"/>
                <ItemRef ItemOID="IT.DM.DMXENDY" OrderNumber="60" Mandatory="No" Role="Timing" val:Core="Prohibited"/>
                <ItemRef ItemOID="IT.DM.DMCHDY" OrderNumber="61" Mandatory="No" Role="Timing" val:Core="Prohibited"/>
                <ItemRef ItemOID="IT.DM.DMCHSTDY" OrderNumber="62" Mandatory="No" Role="Timing" val:Core="Prohibited"/>
                <ItemRef ItemOID="IT.DM.DMCHENDY" OrderNumber="63" Mandatory="No" Role="Timing" val:Core="Prohibited"/>
                <ItemRef ItemOID="IT.DM.DMDUR" OrderNumber="64" Mandatory="No" Role="Timing" val:Core="Prohibited"/>
                <ItemRef ItemOID="IT.DM.DMTPT" OrderNumber="65" Mandatory="No" Role="Timing" val:Core="Prohibited"/>
                <ItemRef ItemOID="IT.DM.DMTPTNUM" OrderNumber="66" Mandatory="No" Role="Timing" val:Core="Prohibited"/>
                <ItemRef ItemOID="IT.DM.DMELTM" OrderNumber="67" Mandatory="No" Role="Timing" val:Core="Prohibited"/>
                <ItemRef ItemOID="IT.DM.DMTPTREF" OrderNumber="68" Mandatory="No" Role="Timing" val:Core="Prohibited"/>
                <ItemRef ItemOID="IT.DM.DMRFTDTC" OrderNumber="69" Mandatory="No" Role="Timing" val:Core="Prohibited"/>
                <ItemRef ItemOID="IT.DM.DMSTRF" OrderNumber="70" Mandatory="No" Role="Timing" val:Core="Prohibited"/>
                <ItemRef ItemOID="IT.DM.DMENRF" OrderNumber="71" Mandatory="No" Role="Timing" val:Core="Prohibited"/>
                <ItemRef ItemOID="IT.DM.DMEVLINT" OrderNumber="72" Mandatory="No" Role="Timing" val:Core="Prohibited"/>
                <ItemRef ItemOID="IT.DM.DMEVINTX" OrderNumber="73" Mandatory="No" Role="Timing" val:Core="Prohibited"/>
                <ItemRef ItemOID="IT.DM.DMSTRTPT" OrderNumber="74" Mandatory="No" Role="Timing" val:Core="Prohibited"/>
                <ItemRef ItemOID="IT.DM.DMSTTPT" OrderNumber="75" Mandatory="No" Role="Timing" val:Core="Prohibited"/>
                <ItemRef ItemOID="IT.DM.DMENRTPT" OrderNumber="76" Mandatory="No" Role="Timing" val:Core="Prohibited"/>
                <ItemRef ItemOID="IT.DM.DMENTPT" OrderNumber="77" Mandatory="No" Role="Timing" val:Core="Prohibited"/>
                <ItemRef ItemOID="IT.DM.DMSTINT" OrderNumber="78" Mandatory="No" Role="Timing" val:Core="Prohibited"/>
                <ItemRef ItemOID="IT.DM.DMENINT" OrderNumber="79" Mandatory="No" Role="Timing" val:Core="Prohibited"/>
                <ItemRef ItemOID="IT.DM.DMDETECT" OrderNumber="80" Mandatory="No" Role="Timing" val:Core="SEND Only"/>
                <ItemRef ItemOID="IT.DM.DMPTFL" OrderNumber="81" Mandatory="No" Role="Timing" val:Core="Prohibited"/>
                <ItemRef ItemOID="IT.DM.DMPDUR" OrderNumber="82" Mandatory="No" Role="Timing" val:Core="Prohibited"/>
                <def:leaf ID="Location.DM" xlink:href="dm.xpt">
                    <def:title>dm.xpt</def:title>
                </def:leaf>
                <val:ValidationRuleRef RuleID="CT2001" Active="Yes"/>
                <val:ValidationRuleRef RuleID="CT2002" Active="Yes"/>
                <val:ValidationRuleRef RuleID="CT2003" Active="Yes"/>
                <val:ValidationRuleRef RuleID="CT2004" Active="Yes"/>
                <val:ValidationRuleRef RuleID="CT2005" Active="Yes"/>
                <val:ValidationRuleRef RuleID="CT2006" Active="Yes"/>
                <val:ValidationRuleRef RuleID="SD0001" Active="Yes"/>
                <val:ValidationRuleRef RuleID="SD0002" Active="Yes"/>
                <val:ValidationRuleRef RuleID="SD0003" Active="Yes"/>
                <val:ValidationRuleRef RuleID="SD0004" Active="Yes"/>
                <val:ValidationRuleRef RuleID="SD0006" Active="Yes"/>
                <val:ValidationRuleRef RuleID="SD0013" Active="Yes"/>
                <val:ValidationRuleRef RuleID="SD0037" Active="Yes"/>
                <val:ValidationRuleRef RuleID="SD0038" Active="Yes"/>
                <val:ValidationRuleRef RuleID="SD0051" Active="Yes"/>
                <val:ValidationRuleRef RuleID="SD0054" Active="Yes"/>
                <val:ValidationRuleRef RuleID="SD0055" Active="Yes"/>
                <val:ValidationRuleRef RuleID="SD0056" Active="Yes"/>
                <val:ValidationRuleRef RuleID="SD0057" Active="Yes"/>
                <val:ValidationRuleRef RuleID="SD0058" Active="Yes"/>
                <val:ValidationRuleRef RuleID="SD0059" Active="Yes"/>
                <val:ValidationRuleRef RuleID="SD0060" Active="Yes"/>
                <val:ValidationRuleRef RuleID="SD0062" Active="Yes"/>
                <val:ValidationRuleRef RuleID="SD0065" Active="Yes"/>
                <val:ValidationRuleRef RuleID="SD0066" Active="Yes"/>
                <val:ValidationRuleRef RuleID="SD0070" Active="Yes"/>
                <val:ValidationRuleRef RuleID="SD0071" Active="Yes"/>
                <val:ValidationRuleRef RuleID="SD0083" Active="Yes"/>
                <val:ValidationRuleRef RuleID="SD0084" Active="Yes"/>
                <val:ValidationRuleRef RuleID="SD0087" Active="Yes"/>
                <val:ValidationRuleRef RuleID="SD0088" Active="Yes"/>
                <val:ValidationRuleRef RuleID="SD1001" Active="Yes"/>
                <val:ValidationRuleRef RuleID="SD1002" Active="Yes"/>
                <val:ValidationRuleRef RuleID="SD1004" Active="Yes"/>
                <val:ValidationRuleRef RuleID="SD1021" Active="Yes"/>
                <val:ValidationRuleRef RuleID="SD1023" Active="Yes"/>
                <val:ValidationRuleRef RuleID="SD1033" Active="Yes"/>
                <val:ValidationRuleRef RuleID="SD1034" Active="Yes"/>
                <val:ValidationRuleRef RuleID="SD1063" Active="Yes"/>
                <val:ValidationRuleRef RuleID="SD1071" Active="Yes"/>
                <val:ValidationRuleRef RuleID="SD1073" Active="Yes"/>
                <val:ValidationRuleRef RuleID="SD1074" Active="Yes"/>
                <val:ValidationRuleRef RuleID="SD1075" Active="Yes"/>
                <val:ValidationRuleRef RuleID="SD1076" Active="Yes"/>
                <val:ValidationRuleRef RuleID="SD1078" Active="Yes"/>
                <val:ValidationRuleRef RuleID="SD1079" Active="Yes"/>
                <val:ValidationRuleRef RuleID="SD1082" Active="Yes"/>
                <val:ValidationRuleRef RuleID="SD1083" Active="Yes"/>
                <val:ValidationRuleRef RuleID="SD1084" Active="Yes"/>
                <val:ValidationRuleRef RuleID="SD1085" Active="Yes"/>
                <val:ValidationRuleRef RuleID="SD1086" Active="Yes"/>
                <val:ValidationRuleRef RuleID="SD1121" Active="Yes"/>
                <val:ValidationRuleRef RuleID="SD1129" Active="Yes"/>
                <val:ValidationRuleRef RuleID="SD1133" Active="Yes"/>
                <val:ValidationRuleRef RuleID="SD1134" Active="Yes"/>
                <val:ValidationRuleRef RuleID="SD1149" Active="Yes"/>
                <val:ValidationRuleRef RuleID="SD1152" Active="Yes"/>
                <val:ValidationRuleRef RuleID="SD1202" Active="Yes"/>
                <val:ValidationRuleRef RuleID="SD1203" Active="Yes"/>
                <val:ValidationRuleRef RuleID="SD1204" Active="Yes"/>
                <val:ValidationRuleRef RuleID="SD1208" Active="Yes"/>
                <val:ValidationRuleRef RuleID="SD1209" Active="Yes"/>
                <val:ValidationRuleRef RuleID="SD1210" Active="Yes"/>
                <val:ValidationRuleRef RuleID="SD1213" Active="Yes"/>
                <val:ValidationRuleRef RuleID="SD1228" Active="Yes"/>
                <val:ValidationRuleRef RuleID="SD1229" Active="Yes"/>
                <val:ValidationRuleRef RuleID="SD1230" Active="Yes"/>
                <val:ValidationRuleRef RuleID="SD1231" Active="Yes"/>
                <val:ValidationRuleRef RuleID="SD1240" Active="Yes"/>
                <val:ValidationRuleRef RuleID="SD1259" Active="Yes"/>
                <val:ValidationRuleRef RuleID="SD1300" Active="Yes"/>
                <val:ValidationRuleRef RuleID="SD1322" Active="Yes"/>
                <val:ValidationRuleRef RuleID="SD1324" Active="Yes"/>
                <val:ValidationRuleRef RuleID="SD1325" Active="Yes"/>
                <val:ValidationRuleRef RuleID="SD1334" Active="Yes"/>
                <val:ValidationRuleRef RuleID="SD1335" Active="Yes"/>
                <val:ValidationRuleRef RuleID="SD1342" Active="Yes"/>
                <val:ValidationRuleRef RuleID="SD1343" Active="Yes"/>
                <val:ValidationRuleRef RuleID="SD1349" Active="Yes"/>
                <val:ValidationRuleRef RuleID="SD1358" Active="Yes"/>
                <val:ValidationRuleRef RuleID="SD1359" Active="Yes"/>
                <val:ValidationRuleRef RuleID="SD1360" Active="Yes"/>
                <val:ValidationRuleRef RuleID="SD1361" Active="Yes"/>
                <val:ValidationRuleRef RuleID="SD1362" Active="Yes"/>
                <val:ValidationRuleRef RuleID="SD1363" Active="Yes"/>
                <val:ValidationRuleRef RuleID="SD1364" Active="Yes"/>
                <val:ValidationRuleRef RuleID="SD1366" Active="Yes"/>
                <val:ValidationRuleRef RuleID="SD1373" Active="Yes"/>
                <val:ValidationRuleRef RuleID="SD1374" Active="Yes"/>
                <val:ValidationRuleRef RuleID="SD1377" Active="Yes"/>
                <val:ValidationRuleRef RuleID="SD2001" Active="Yes"/>
                <val:ValidationRuleRef RuleID="SD2002" Active="Yes"/>
                <val:ValidationRuleRef RuleID="SD2003" Active="Yes"/>
                <val:ValidationRuleRef RuleID="SD2004" Active="Yes"/>
                <val:ValidationRuleRef RuleID="SD2005" Active="Yes"/>
                <val:ValidationRuleRef RuleID="SD2019" Active="Yes"/>
                <val:ValidationRuleRef RuleID="SD2020" Active="Yes"/>
                <val:ValidationRuleRef RuleID="SD2021" Active="Yes"/>
                <val:ValidationRuleRef RuleID="SD2022" Active="Yes"/>
                <val:ValidationRuleRef RuleID="SD2023" Active="Yes"/>
                <val:ValidationRuleRef RuleID="SD2236" Active="Yes"/>
                <val:ValidationRuleRef RuleID="SD2237" Active="Yes"/>
                <val:ValidationRuleRef RuleID="SD2270" Active="Yes"/>
            </ItemGroupDef>
            <ItemGroupDef OID="IG.SE" Name="SE" Repeating="Yes" IsReferenceData="No" Purpose="Tabulation" def:Structure="One record per actual Element per subject" def:Class="SPECIAL PURPOSE" def:ArchiveLocationID="Location.SE">
                <Description>
                    <TranslatedText xml:lang="en">Subject Elements</TranslatedText>
                </Description>
                <ItemRef ItemOID="IT.SE.STUDYID" OrderNumber="1" Mandatory="Yes" KeySequence="1" Role="Identifier" val:Core="Required"/>
                <ItemRef ItemOID="IT.SE.DOMAIN" OrderNumber="2" Mandatory="Yes" Role="Identifier" val:Core="Required"/>
                <ItemRef ItemOID="IT.SE.USUBJID" OrderNumber="3" Mandatory="Yes" KeySequence="2" Role="Identifier" val:Core="Required"/>
                <ItemRef ItemOID="IT.SE.SESEQ" OrderNumber="4" Mandatory="Yes" Role="Identifier" val:Core="Required"/>
                <ItemRef ItemOID="IT.SE.SEGRPID" OrderNumber="5" Mandatory="No" Role="Identifier" val:Core="Model Permissible"/>
                <ItemRef ItemOID="IT.SE.SEREFID" OrderNumber="6" Mandatory="No" Role="Identifier" val:Core="Model Permissible"/>
                <ItemRef ItemOID="IT.SE.SERECID" OrderNumber="7" Mandatory="No" Role="Identifier" val:Core="Model Permissible"/>
                <ItemRef ItemOID="IT.SE.SESPID" OrderNumber="8" Mandatory="No" Role="Identifier" val:Core="Model Permissible"/>
                <ItemRef ItemOID="IT.SE.ETCD" OrderNumber="9" Mandatory="Yes" KeySequence="3" Role="Topic" val:Core="Required"/>
                <ItemRef ItemOID="IT.SE.ELEMENT" OrderNumber="10" Mandatory="No" Role="Synonym Qualifier" val:Core="Permissible"/>
                <ItemRef ItemOID="IT.SE.VISITNUM" OrderNumber="11" Mandatory="No" Role="Timing" val:Core="Model Permissible"/>
                <ItemRef ItemOID="IT.SE.VISIT" OrderNumber="12" Mandatory="No" Role="Timing" val:Core="Model Permissible"/>
                <ItemRef ItemOID="IT.SE.VISITDY" OrderNumber="13" Mandatory="No" Role="Timing" val:Core="Model Permissible"/>
                <ItemRef ItemOID="IT.SE.TAETORD" OrderNumber="14" Mandatory="No" Role="Timing" val:Core="Permissible"/>
                <ItemRef ItemOID="IT.SE.EPOCH" OrderNumber="15" Mandatory="No" Role="Timing" val:Core="Permissible"/>
                <ItemRef ItemOID="IT.SE.RPHASE" OrderNumber="16" Mandatory="No" Role="Timing" val:Core="SEND Only"/>
                <ItemRef ItemOID="IT.SE.RPPLDY" OrderNumber="17" Mandatory="No" Role="Timing" val:Core="SEND Only"/>
                <ItemRef ItemOID="IT.SE.RPPLSTDY" OrderNumber="18" Mandatory="No" Role="Timing" val:Core="SEND Only"/>
                <ItemRef ItemOID="IT.SE.RPPLENDY" OrderNumber="19" Mandatory="No" Role="Timing" val:Core="SEND Only"/>
                <ItemRef ItemOID="IT.SE.SEDTC" OrderNumber="20" Mandatory="No" Role="Timing" val:Core="Not Recommended"/>
                <ItemRef ItemOID="IT.SE.SESTDTC" OrderNumber="21" Mandatory="Yes" KeySequence="4" Role="Timing" val:Core="Required"/>
                <ItemRef ItemOID="IT.SE.SEENDTC" OrderNumber="22" Mandatory="No" Role="Timing" val:Core="Expected"/>
                <ItemRef ItemOID="IT.SE.SEDY" OrderNumber="23" Mandatory="No" Role="Timing" val:Core="Not Recommended"/>
                <ItemRef ItemOID="IT.SE.SESTDY" OrderNumber="24" Mandatory="No" Role="Timing" val:Core="Permissible"/>
                <ItemRef ItemOID="IT.SE.SEENDY" OrderNumber="25" Mandatory="No" Role="Timing" val:Core="Permissible"/>
                <ItemRef ItemOID="IT.SE.SENOMDY" OrderNumber="26" Mandatory="No" Role="Timing" val:Core="SEND Only"/>
                <ItemRef ItemOID="IT.SE.SENOMLBL" OrderNumber="27" Mandatory="No" Role="Timing" val:Core="SEND Only"/>
                <ItemRef ItemOID="IT.SE.SERPDY" OrderNumber="28" Mandatory="No" Role="Timing" val:Core="SEND Only"/>
                <ItemRef ItemOID="IT.SE.SERPSTDY" OrderNumber="29" Mandatory="No" Role="Timing" val:Core="SEND Only"/>
                <ItemRef ItemOID="IT.SE.SERPENDY" OrderNumber="30" Mandatory="No" Role="Timing" val:Core="SEND Only"/>
                <ItemRef ItemOID="IT.SE.SEXDY" OrderNumber="31" Mandatory="No" Role="Timing" val:Core="Model Permissible"/>
                <ItemRef ItemOID="IT.SE.SEXSTDY" OrderNumber="32" Mandatory="No" Role="Timing" val:Core="Model Permissible"/>
                <ItemRef ItemOID="IT.SE.SEXENDY" OrderNumber="33" Mandatory="No" Role="Timing" val:Core="Model Permissible"/>
                <ItemRef ItemOID="IT.SE.SECHDY" OrderNumber="34" Mandatory="No" Role="Timing" val:Core="Model Permissible"/>
                <ItemRef ItemOID="IT.SE.SECHSTDY" OrderNumber="35" Mandatory="No" Role="Timing" val:Core="Model Permissible"/>
                <ItemRef ItemOID="IT.SE.SECHENDY" OrderNumber="36" Mandatory="No" Role="Timing" val:Core="Model Permissible"/>
                <ItemRef ItemOID="IT.SE.SEDUR" OrderNumber="37" Mandatory="No" Role="Timing" val:Core="Model Permissible"/>
                <ItemRef ItemOID="IT.SE.SETPT" OrderNumber="38" Mandatory="No" Role="Timing" val:Core="Prohibited"/>
                <ItemRef ItemOID="IT.SE.SETPTNUM" OrderNumber="39" Mandatory="No" Role="Timing" val:Core="Prohibited"/>
                <ItemRef ItemOID="IT.SE.SEELTM" OrderNumber="40" Mandatory="No" Role="Timing" val:Core="Prohibited"/>
                <ItemRef ItemOID="IT.SE.SETPTREF" OrderNumber="41" Mandatory="No" Role="Timing" val:Core="Prohibited"/>
                <ItemRef ItemOID="IT.SE.SERFTDTC" OrderNumber="42" Mandatory="No" Role="Timing" val:Core="Prohibited"/>
                <ItemRef ItemOID="IT.SE.SESTRF" OrderNumber="43" Mandatory="No" Role="Timing" val:Core="Model Permissible"/>
                <ItemRef ItemOID="IT.SE.SEENRF" OrderNumber="44" Mandatory="No" Role="Timing" val:Core="Model Permissible"/>
                <ItemRef ItemOID="IT.SE.SEEVLINT" OrderNumber="45" Mandatory="No" Role="Timing" val:Core="Model Permissible"/>
                <ItemRef ItemOID="IT.SE.SEEVINTX" OrderNumber="46" Mandatory="No" Role="Timing" val:Core="Model Permissible"/>
                <ItemRef ItemOID="IT.SE.SESTRTPT" OrderNumber="47" Mandatory="No" Role="Timing" val:Core="Model Permissible"/>
                <ItemRef ItemOID="IT.SE.SESTTPT" OrderNumber="48" Mandatory="No" Role="Timing" val:Core="Model Permissible"/>
                <ItemRef ItemOID="IT.SE.SEENRTPT" OrderNumber="49" Mandatory="No" Role="Timing" val:Core="Model Permissible"/>
                <ItemRef ItemOID="IT.SE.SEENTPT" OrderNumber="50" Mandatory="No" Role="Timing" val:Core="Model Permissible"/>
                <ItemRef ItemOID="IT.SE.SEUPDES" OrderNumber="51" Mandatory="No" Role="Synonym Qualifier" val:Core="Permissible"/>
                <def:leaf ID="Location.SE" xlink:href="se.xpt">
                    <def:title>se.xpt</def:title>
                </def:leaf>
                <val:ValidationRuleRef RuleID="CT2001" Active="Yes"/>
                <val:ValidationRuleRef RuleID="CT2002" Active="Yes"/>
                <val:ValidationRuleRef RuleID="CT2003" Active="Yes"/>
                <val:ValidationRuleRef RuleID="CT2004" Active="Yes"/>
                <val:ValidationRuleRef RuleID="CT2005" Active="Yes"/>
                <val:ValidationRuleRef RuleID="CT2006" Active="Yes"/>
                <val:ValidationRuleRef RuleID="SD0001" Active="Yes"/>
                <val:ValidationRuleRef RuleID="SD0002" Active="Yes"/>
                <val:ValidationRuleRef RuleID="SD0003" Active="Yes"/>
                <val:ValidationRuleRef RuleID="SD0004" Active="Yes"/>
                <val:ValidationRuleRef RuleID="SD0005" Active="Yes"/>
                <val:ValidationRuleRef RuleID="SD0012" Active="Yes"/>
                <val:ValidationRuleRef RuleID="SD0013" Active="Yes"/>
                <val:ValidationRuleRef RuleID="SD0015" Active="Yes"/>
                <val:ValidationRuleRef RuleID="SD0031" Active="Yes"/>
                <val:ValidationRuleRef RuleID="SD0037" Active="Yes"/>
                <val:ValidationRuleRef RuleID="SD0038" Active="Yes"/>
                <val:ValidationRuleRef RuleID="SD0049" Active="Yes"/>
                <val:ValidationRuleRef RuleID="SD0050" Active="Yes"/>
                <val:ValidationRuleRef RuleID="SD0054" Active="Yes"/>
                <val:ValidationRuleRef RuleID="SD0055" Active="Yes"/>
                <val:ValidationRuleRef RuleID="SD0056" Active="Yes"/>
                <val:ValidationRuleRef RuleID="SD0057" Active="Yes"/>
                <val:ValidationRuleRef RuleID="SD0058" Active="Yes"/>
                <val:ValidationRuleRef RuleID="SD0059" Active="Yes"/>
                <val:ValidationRuleRef RuleID="SD0060" Active="Yes"/>
                <val:ValidationRuleRef RuleID="SD0062" Active="Yes"/>
                <val:ValidationRuleRef RuleID="SD0064" Active="Yes"/>
                <val:ValidationRuleRef RuleID="SD0065" Active="Yes"/>
                <val:ValidationRuleRef RuleID="SD0067" Active="Yes"/>
                <val:ValidationRuleRef RuleID="SD0092" Active="Yes"/>
                <val:ValidationRuleRef RuleID="SD1005" Active="Yes"/>
                <val:ValidationRuleRef RuleID="SD1009" Active="Yes"/>
                <val:ValidationRuleRef RuleID="SD1010" Active="Yes"/>
                <val:ValidationRuleRef RuleID="SD1011" Active="Yes"/>
                <val:ValidationRuleRef RuleID="SD1012" Active="Yes"/>
                <val:ValidationRuleRef RuleID="SD1013" Active="Yes"/>
                <val:ValidationRuleRef RuleID="SD1014" Active="Yes"/>
                <val:ValidationRuleRef RuleID="SD1015" Active="Yes"/>
                <val:ValidationRuleRef RuleID="SD1021" Active="Yes"/>
                <val:ValidationRuleRef RuleID="SD1023" Active="Yes"/>
                <val:ValidationRuleRef RuleID="SD1027" Active="Yes"/>
                <val:ValidationRuleRef RuleID="SD1030" Active="Yes"/>
                <val:ValidationRuleRef RuleID="SD1031" Active="Yes"/>
                <val:ValidationRuleRef RuleID="SD1050" Active="Yes"/>
                <val:ValidationRuleRef RuleID="SD1063" Active="Yes"/>
                <val:ValidationRuleRef RuleID="SD1071" Active="Yes"/>
                <val:ValidationRuleRef RuleID="SD1073" Active="Yes"/>
                <val:ValidationRuleRef RuleID="SD1074" Active="Yes"/>
                <val:ValidationRuleRef RuleID="SD1075" Active="Yes"/>
                <val:ValidationRuleRef RuleID="SD1076" Active="Yes"/>
                <val:ValidationRuleRef RuleID="SD1077" Active="Yes"/>
                <val:ValidationRuleRef RuleID="SD1078" Active="Yes"/>
                <val:ValidationRuleRef RuleID="SD1079" Active="Yes"/>
                <val:ValidationRuleRef RuleID="SD1082" Active="Yes"/>
                <val:ValidationRuleRef RuleID="SD1083" Active="Yes"/>
                <val:ValidationRuleRef RuleID="SD1084" Active="Yes"/>
                <val:ValidationRuleRef RuleID="SD1085" Active="Yes"/>
                <val:ValidationRuleRef RuleID="SD1086" Active="Yes"/>
                <val:ValidationRuleRef RuleID="SD1087" Active="Yes"/>
                <val:ValidationRuleRef RuleID="SD1088" Active="Yes"/>
                <val:ValidationRuleRef RuleID="SD1089" Active="Yes"/>
                <val:ValidationRuleRef RuleID="SD1090" Active="Yes"/>
                <val:ValidationRuleRef RuleID="SD1091" Active="Yes"/>
                <val:ValidationRuleRef RuleID="SD1092" Active="Yes"/>
                <val:ValidationRuleRef RuleID="SD1093" Active="Yes"/>
                <val:ValidationRuleRef RuleID="SD1094" Active="Yes"/>
                <val:ValidationRuleRef RuleID="SD1101" Active="Yes"/>
                <val:ValidationRuleRef RuleID="SD1102" Active="Yes"/>
                <val:ValidationRuleRef RuleID="SD1103" Active="Yes"/>
                <val:ValidationRuleRef RuleID="SD1104" Active="Yes"/>
                <val:ValidationRuleRef RuleID="SD1152" Active="Yes"/>
                <val:ValidationRuleRef RuleID="SD1202" Active="Yes"/>
                <val:ValidationRuleRef RuleID="SD1203" Active="Yes"/>
                <val:ValidationRuleRef RuleID="SD1204" Active="Yes"/>
                <val:ValidationRuleRef RuleID="SD1228" Active="Yes"/>
                <val:ValidationRuleRef RuleID="SD1229" Active="Yes"/>
                <val:ValidationRuleRef RuleID="SD1230" Active="Yes"/>
                <val:ValidationRuleRef RuleID="SD1231" Active="Yes"/>
                <val:ValidationRuleRef RuleID="SD1238" Active="Yes"/>
                <val:ValidationRuleRef RuleID="SD1245" Active="Yes"/>
                <val:ValidationRuleRef RuleID="SD1246" Active="Yes"/>
                <val:ValidationRuleRef RuleID="SD1266" Active="Yes"/>
                <val:ValidationRuleRef RuleID="SD1282" Active="Yes"/>
                <val:ValidationRuleRef RuleID="SD1291" Active="Yes"/>
                <val:ValidationRuleRef RuleID="SD1292" Active="Yes"/>
                <val:ValidationRuleRef RuleID="SD1300" Active="Yes"/>
                <val:ValidationRuleRef RuleID="SD1324" Active="Yes"/>
                <val:ValidationRuleRef RuleID="SD1325" Active="Yes"/>
                <val:ValidationRuleRef RuleID="SD1339" Active="Yes"/>
                <val:ValidationRuleRef RuleID="SD2270" Active="Yes"/>
                <val:ValidationRuleRef RuleID="SD2271" Active="Yes"/>
                <val:ValidationRuleRef RuleID="SD2272" Active="Yes"/>
            </ItemGroupDef>
            <ItemGroupDef OID="IG.SM" Name="SM" Repeating="Yes" IsReferenceData="No" Purpose="Tabulation" def:Structure="One record per Disease Milestone per subject" def:Class="SPECIAL PURPOSE" def:ArchiveLocationID="Location.SM">
                <Description>
                    <TranslatedText xml:lang="en">Subject Disease Milestones</TranslatedText>
                </Description>
                <ItemRef ItemOID="IT.SM.STUDYID" OrderNumber="1" Mandatory="Yes" KeySequence="1" Role="Identifier" val:Core="Required"/>
                <ItemRef ItemOID="IT.SM.DOMAIN" OrderNumber="2" Mandatory="Yes" Role="Identifier" val:Core="Required"/>
                <ItemRef ItemOID="IT.SM.USUBJID" OrderNumber="3" Mandatory="Yes" KeySequence="2" Role="Identifier" val:Core="Required"/>
                <ItemRef ItemOID="IT.SM.SMSEQ" OrderNumber="4" Mandatory="Yes" Role="Identifier" val:Core="Required"/>
                <ItemRef ItemOID="IT.SM.SMGRPID" OrderNumber="5" Mandatory="No" Role="Identifier" val:Core="Model Permissible"/>
                <ItemRef ItemOID="IT.SM.SMREFID" OrderNumber="6" Mandatory="No" Role="Identifier" val:Core="Model Permissible"/>
                <ItemRef ItemOID="IT.SM.SMRECID" OrderNumber="7" Mandatory="No" Role="Identifier" val:Core="Model Permissible"/>
                <ItemRef ItemOID="IT.SM.SMSPID" OrderNumber="8" Mandatory="No" Role="Identifier" val:Core="Model Permissible"/>
                <ItemRef ItemOID="IT.SM.MIDS" OrderNumber="9" Mandatory="Yes" KeySequence="3" Role="Topic" val:Core="Required"/>
                <ItemRef ItemOID="IT.SM.MIDSTYPE" OrderNumber="10" Mandatory="Yes" Role="Record Qualifier" val:Core="Required"/>
                <ItemRef ItemOID="IT.SM.VISITNUM" OrderNumber="11" Mandatory="No" Role="Timing" val:Core="Model Permissible"/>
                <ItemRef ItemOID="IT.SM.VISIT" OrderNumber="12" Mandatory="No" Role="Timing" val:Core="Model Permissible"/>
                <ItemRef ItemOID="IT.SM.VISITDY" OrderNumber="13" Mandatory="No" Role="Timing" val:Core="Model Permissible"/>
                <ItemRef ItemOID="IT.SM.TAETORD" OrderNumber="14" Mandatory="No" Role="Timing" val:Core="Model Permissible"/>
                <ItemRef ItemOID="IT.SM.EPOCH" OrderNumber="15" Mandatory="No" Role="Timing" val:Core="Model Permissible"/>
                <ItemRef ItemOID="IT.SM.RPHASE" OrderNumber="16" Mandatory="No" Role="Timing" val:Core="SEND Only"/>
                <ItemRef ItemOID="IT.SM.RPPLDY" OrderNumber="17" Mandatory="No" Role="Timing" val:Core="SEND Only"/>
                <ItemRef ItemOID="IT.SM.RPPLSTDY" OrderNumber="18" Mandatory="No" Role="Timing" val:Core="SEND Only"/>
                <ItemRef ItemOID="IT.SM.RPPLENDY" OrderNumber="19" Mandatory="No" Role="Timing" val:Core="SEND Only"/>
                <ItemRef ItemOID="IT.SM.SMDTC" OrderNumber="20" Mandatory="No" Role="Timing" val:Core="Model Permissible"/>
                <ItemRef ItemOID="IT.SM.SMSTDTC" OrderNumber="21" Mandatory="No" KeySequence="4" Role="Timing" val:Core="Expected"/>
                <ItemRef ItemOID="IT.SM.SMENDTC" OrderNumber="22" Mandatory="No" Role="Timing" val:Core="Expected"/>
                <ItemRef ItemOID="IT.SM.SMDY" OrderNumber="23" Mandatory="No" Role="Timing" val:Core="Model Permissible"/>
                <ItemRef ItemOID="IT.SM.SMSTDY" OrderNumber="24" Mandatory="No" Role="Timing" val:Core="Expected"/>
                <ItemRef ItemOID="IT.SM.SMENDY" OrderNumber="25" Mandatory="No" Role="Timing" val:Core="Expected"/>
                <ItemRef ItemOID="IT.SM.SMNOMDY" OrderNumber="26" Mandatory="No" Role="Timing" val:Core="SEND Only"/>
                <ItemRef ItemOID="IT.SM.SMNOMLBL" OrderNumber="27" Mandatory="No" Role="Timing" val:Core="SEND Only"/>
                <ItemRef ItemOID="IT.SM.SMRPDY" OrderNumber="28" Mandatory="No" Role="Timing" val:Core="SEND Only"/>
                <ItemRef ItemOID="IT.SM.SMRPSTDY" OrderNumber="29" Mandatory="No" Role="Timing" val:Core="SEND Only"/>
                <ItemRef ItemOID="IT.SM.SMRPENDY" OrderNumber="30" Mandatory="No" Role="Timing" val:Core="SEND Only"/>
                <ItemRef ItemOID="IT.SM.SMXDY" OrderNumber="31" Mandatory="No" Role="Timing" val:Core="Model Permissible"/>
                <ItemRef ItemOID="IT.SM.SMXSTDY" OrderNumber="32" Mandatory="No" Role="Timing" val:Core="Model Permissible"/>
                <ItemRef ItemOID="IT.SM.SMXENDY" OrderNumber="33" Mandatory="No" Role="Timing" val:Core="Model Permissible"/>
                <ItemRef ItemOID="IT.SM.SMCHDY" OrderNumber="34" Mandatory="No" Role="Timing" val:Core="Model Permissible"/>
                <ItemRef ItemOID="IT.SM.SMCHSTDY" OrderNumber="35" Mandatory="No" Role="Timing" val:Core="Model Permissible"/>
                <ItemRef ItemOID="IT.SM.SMCHENDY" OrderNumber="36" Mandatory="No" Role="Timing" val:Core="Model Permissible"/>
                <ItemRef ItemOID="IT.SM.SMDUR" OrderNumber="37" Mandatory="No" Role="Timing" val:Core="Model Permissible"/>
                <ItemRef ItemOID="IT.SM.SMTPT" OrderNumber="38" Mandatory="No" Role="Timing" val:Core="Model Permissible"/>
                <ItemRef ItemOID="IT.SM.SMTPTNUM" OrderNumber="39" Mandatory="No" Role="Timing" val:Core="Model Permissible"/>
                <ItemRef ItemOID="IT.SM.SMELTM" OrderNumber="40" Mandatory="No" Role="Timing" val:Core="Model Permissible"/>
                <ItemRef ItemOID="IT.SM.SMTPTREF" OrderNumber="41" Mandatory="No" Role="Timing" val:Core="Model Permissible"/>
                <ItemRef ItemOID="IT.SM.SMRFTDTC" OrderNumber="42" Mandatory="No" Role="Timing" val:Core="Model Permissible"/>
                <ItemRef ItemOID="IT.SM.SMSTRF" OrderNumber="43" Mandatory="No" Role="Timing" val:Core="Model Permissible"/>
                <ItemRef ItemOID="IT.SM.SMENRF" OrderNumber="44" Mandatory="No" Role="Timing" val:Core="Model Permissible"/>
                <ItemRef ItemOID="IT.SM.SMEVLINT" OrderNumber="45" Mandatory="No" Role="Timing" val:Core="Model Permissible"/>
                <ItemRef ItemOID="IT.SM.SMEVINTX" OrderNumber="46" Mandatory="No" Role="Timing" val:Core="Model Permissible"/>
                <ItemRef ItemOID="IT.SM.SMSTRTPT" OrderNumber="47" Mandatory="No" Role="Timing" val:Core="Model Permissible"/>
                <ItemRef ItemOID="IT.SM.SMSTTPT" OrderNumber="48" Mandatory="No" Role="Timing" val:Core="Model Permissible"/>
                <ItemRef ItemOID="IT.SM.SMENRTPT" OrderNumber="49" Mandatory="No" Role="Timing" val:Core="Model Permissible"/>
                <ItemRef ItemOID="IT.SM.SMENTPT" OrderNumber="50" Mandatory="No" Role="Timing" val:Core="Model Permissible"/>
                <def:leaf ID="Location.SM" xlink:href="sm.xpt">
                    <def:title>sm.xpt</def:title>
                </def:leaf>
                <val:ValidationRuleRef RuleID="CT2001" Active="Yes"/>
                <val:ValidationRuleRef RuleID="CT2002" Active="Yes"/>
                <val:ValidationRuleRef RuleID="CT2003" Active="Yes"/>
                <val:ValidationRuleRef RuleID="CT2004" Active="Yes"/>
                <val:ValidationRuleRef RuleID="CT2005" Active="Yes"/>
                <val:ValidationRuleRef RuleID="CT2006" Active="Yes"/>
                <val:ValidationRuleRef RuleID="SD0001" Active="Yes"/>
                <val:ValidationRuleRef RuleID="SD0002" Active="Yes"/>
                <val:ValidationRuleRef RuleID="SD0003" Active="Yes"/>
                <val:ValidationRuleRef RuleID="SD0004" Active="Yes"/>
                <val:ValidationRuleRef RuleID="SD0005" Active="Yes"/>
                <val:ValidationRuleRef RuleID="SD0012" Active="Yes"/>
                <val:ValidationRuleRef RuleID="SD0013" Active="Yes"/>
                <val:ValidationRuleRef RuleID="SD0015" Active="Yes"/>
                <val:ValidationRuleRef RuleID="SD0031" Active="Yes"/>
                <val:ValidationRuleRef RuleID="SD0037" Active="Yes"/>
                <val:ValidationRuleRef RuleID="SD0038" Active="Yes"/>
                <val:ValidationRuleRef RuleID="SD0049" Active="Yes"/>
                <val:ValidationRuleRef RuleID="SD0050" Active="Yes"/>
                <val:ValidationRuleRef RuleID="SD0054" Active="Yes"/>
                <val:ValidationRuleRef RuleID="SD0055" Active="Yes"/>
                <val:ValidationRuleRef RuleID="SD0056" Active="Yes"/>
                <val:ValidationRuleRef RuleID="SD0057" Active="Yes"/>
                <val:ValidationRuleRef RuleID="SD0058" Active="Yes"/>
                <val:ValidationRuleRef RuleID="SD0059" Active="Yes"/>
                <val:ValidationRuleRef RuleID="SD0060" Active="Yes"/>
                <val:ValidationRuleRef RuleID="SD0062" Active="Yes"/>
                <val:ValidationRuleRef RuleID="SD0064" Active="Yes"/>
                <val:ValidationRuleRef RuleID="SD0065" Active="Yes"/>
                <val:ValidationRuleRef RuleID="SD1005" Active="Yes"/>
                <val:ValidationRuleRef RuleID="SD1011" Active="Yes"/>
                <val:ValidationRuleRef RuleID="SD1014" Active="Yes"/>
                <val:ValidationRuleRef RuleID="SD1015" Active="Yes"/>
                <val:ValidationRuleRef RuleID="SD1021" Active="Yes"/>
                <val:ValidationRuleRef RuleID="SD1023" Active="Yes"/>
                <val:ValidationRuleRef RuleID="SD1030" Active="Yes"/>
                <val:ValidationRuleRef RuleID="SD1031" Active="Yes"/>
                <val:ValidationRuleRef RuleID="SD1063" Active="Yes"/>
                <val:ValidationRuleRef RuleID="SD1071" Active="Yes"/>
                <val:ValidationRuleRef RuleID="SD1073" Active="Yes"/>
                <val:ValidationRuleRef RuleID="SD1074" Active="Yes"/>
                <val:ValidationRuleRef RuleID="SD1075" Active="Yes"/>
                <val:ValidationRuleRef RuleID="SD1076" Active="Yes"/>
                <val:ValidationRuleRef RuleID="SD1077" Active="Yes"/>
                <val:ValidationRuleRef RuleID="SD1078" Active="Yes"/>
                <val:ValidationRuleRef RuleID="SD1079" Active="Yes"/>
                <val:ValidationRuleRef RuleID="SD1082" Active="Yes"/>
                <val:ValidationRuleRef RuleID="SD1083" Active="Yes"/>
                <val:ValidationRuleRef RuleID="SD1084" Active="Yes"/>
                <val:ValidationRuleRef RuleID="SD1085" Active="Yes"/>
                <val:ValidationRuleRef RuleID="SD1086" Active="Yes"/>
                <val:ValidationRuleRef RuleID="SD1087" Active="Yes"/>
                <val:ValidationRuleRef RuleID="SD1088" Active="Yes"/>
                <val:ValidationRuleRef RuleID="SD1089" Active="Yes"/>
                <val:ValidationRuleRef RuleID="SD1090" Active="Yes"/>
                <val:ValidationRuleRef RuleID="SD1091" Active="Yes"/>
                <val:ValidationRuleRef RuleID="SD1092" Active="Yes"/>
                <val:ValidationRuleRef RuleID="SD1093" Active="Yes"/>
                <val:ValidationRuleRef RuleID="SD1094" Active="Yes"/>
                <val:ValidationRuleRef RuleID="SD1101" Active="Yes"/>
                <val:ValidationRuleRef RuleID="SD1102" Active="Yes"/>
                <val:ValidationRuleRef RuleID="SD1103" Active="Yes"/>
                <val:ValidationRuleRef RuleID="SD1104" Active="Yes"/>
                <val:ValidationRuleRef RuleID="SD1152" Active="Yes"/>
                <val:ValidationRuleRef RuleID="SD1202" Active="Yes"/>
                <val:ValidationRuleRef RuleID="SD1203" Active="Yes"/>
                <val:ValidationRuleRef RuleID="SD1204" Active="Yes"/>
                <val:ValidationRuleRef RuleID="SD1228" Active="Yes"/>
                <val:ValidationRuleRef RuleID="SD1229" Active="Yes"/>
                <val:ValidationRuleRef RuleID="SD1230" Active="Yes"/>
                <val:ValidationRuleRef RuleID="SD1231" Active="Yes"/>
                <val:ValidationRuleRef RuleID="SD1238" Active="Yes"/>
                <val:ValidationRuleRef RuleID="SD1245" Active="Yes"/>
                <val:ValidationRuleRef RuleID="SD1246" Active="Yes"/>
                <val:ValidationRuleRef RuleID="SD1282" Active="Yes"/>
                <val:ValidationRuleRef RuleID="SD1291" Active="Yes"/>
                <val:ValidationRuleRef RuleID="SD1292" Active="Yes"/>
                <val:ValidationRuleRef RuleID="SD1300" Active="Yes"/>
                <val:ValidationRuleRef RuleID="SD1324" Active="Yes"/>
                <val:ValidationRuleRef RuleID="SD1325" Active="Yes"/>
                <val:ValidationRuleRef RuleID="SD1339" Active="Yes"/>
                <val:ValidationRuleRef RuleID="SD1368" Active="Yes"/>
                <val:ValidationRuleRef RuleID="SD2270" Active="Yes"/>
                <val:ValidationRuleRef RuleID="SD2271" Active="Yes"/>
                <val:ValidationRuleRef RuleID="SD2272" Active="Yes"/>
            </ItemGroupDef>
            <ItemGroupDef OID="IG.SV" Name="SV" Repeating="Yes" IsReferenceData="No" Purpose="Tabulation" def:Structure="One record per subject per actual or planned visit per subject" def:Class="SPECIAL PURPOSE" def:ArchiveLocationID="Location.SV">
                <Description>
                    <TranslatedText xml:lang="en">Subject Visits</TranslatedText>
                </Description>
                <ItemRef ItemOID="IT.SV.STUDYID" OrderNumber="1" Mandatory="Yes" KeySequence="1" Role="Identifier" val:Core="Required"/>
                <ItemRef ItemOID="IT.SV.DOMAIN" OrderNumber="2" Mandatory="Yes" Role="Identifier" val:Core="Required"/>
                <ItemRef ItemOID="IT.SV.USUBJID" OrderNumber="3" Mandatory="Yes" KeySequence="2" Role="Identifier" val:Core="Required"/>
                <ItemRef ItemOID="IT.SV.POOLID" OrderNumber="4" Mandatory="No" Role="Identifier" val:Core="Model Permissible"/>
                <ItemRef ItemOID="IT.SV.SVSEQ" OrderNumber="5" Mandatory="No" Role="Identifier" val:Core="Model Permissible"/>
                <ItemRef ItemOID="IT.SV.SVGRPID" OrderNumber="6" Mandatory="No" Role="Identifier" val:Core="Model Permissible"/>
                <ItemRef ItemOID="IT.SV.SVREFID" OrderNumber="7" Mandatory="No" Role="Identifier" val:Core="Model Permissible"/>
                <ItemRef ItemOID="IT.SV.SVRECID" OrderNumber="8" Mandatory="No" Role="Identifier" val:Core="Model Permissible"/>
                <ItemRef ItemOID="IT.SV.SVSPID" OrderNumber="9" Mandatory="No" Role="Identifier" val:Core="Model Permissible"/>
                <ItemRef ItemOID="IT.SV.VISITNUM" OrderNumber="10" Mandatory="Yes" KeySequence="3" Role="Topic" val:Core="Required"/>
                <ItemRef ItemOID="IT.SV.VISIT" OrderNumber="11" Mandatory="No" Role="Synonym Qualifier" val:Core="Permissible"/>
                <ItemRef ItemOID="IT.SV.SVPRESP" OrderNumber="12" Mandatory="No" Role="Variable Qualifier" val:Core="Expected"/>
                <ItemRef ItemOID="IT.SV.SVOCCUR" OrderNumber="13" Mandatory="No" Role="Record Qualifier" val:Core="Expected"/>
                <ItemRef ItemOID="IT.SV.SVREASOC" OrderNumber="14" Mandatory="No" Role="Record Qualifier" val:Core="Permissible"/>
                <ItemRef ItemOID="IT.SV.SVCNTMOD" OrderNumber="15" Mandatory="No" Role="Record Qualifier" val:Core="Permissible"/>
                <ItemRef ItemOID="IT.SV.SVEPCHGI" OrderNumber="16" Mandatory="No" Role="Record Qualifier" val:Core="Permissible"/>
                <ItemRef ItemOID="IT.SV.VISITDY" OrderNumber="17" Mandatory="No" Role="Timing" val:Core="Permissible"/>
                <ItemRef ItemOID="IT.SV.TAETORD" OrderNumber="18" Mandatory="No" Role="Timing" val:Core="Model Permissible"/>
                <ItemRef ItemOID="IT.SV.EPOCH" OrderNumber="19" Mandatory="No" Role="Timing" val:Core="Model Permissible"/>
                <ItemRef ItemOID="IT.SV.RPHASE" OrderNumber="20" Mandatory="No" Role="Timing" val:Core="SEND Only"/>
                <ItemRef ItemOID="IT.SV.RPPLDY" OrderNumber="21" Mandatory="No" Role="Timing" val:Core="SEND Only"/>
                <ItemRef ItemOID="IT.SV.RPPLSTDY" OrderNumber="22" Mandatory="No" Role="Timing" val:Core="SEND Only"/>
                <ItemRef ItemOID="IT.SV.RPPLENDY" OrderNumber="23" Mandatory="No" Role="Timing" val:Core="SEND Only"/>
                <ItemRef ItemOID="IT.SV.SVDTC" OrderNumber="24" Mandatory="No" Role="Timing" val:Core="Not Recommended"/>
                <ItemRef ItemOID="IT.SV.SVSTDTC" OrderNumber="25" Mandatory="No" Role="Timing" val:Core="Expected"/>
                <ItemRef ItemOID="IT.SV.SVENDTC" OrderNumber="26" Mandatory="No" Role="Timing" val:Core="Expected"/>
                <ItemRef ItemOID="IT.SV.SVDY" OrderNumber="27" Mandatory="No" Role="Timing" val:Core="Not Recommended"/>
                <ItemRef ItemOID="IT.SV.SVSTDY" OrderNumber="28" Mandatory="No" Role="Timing" val:Core="Permissible"/>
                <ItemRef ItemOID="IT.SV.SVENDY" OrderNumber="29" Mandatory="No" Role="Timing" val:Core="Permissible"/>
                <ItemRef ItemOID="IT.SV.SVNOMDY" OrderNumber="30" Mandatory="No" Role="Timing" val:Core="SEND Only"/>
                <ItemRef ItemOID="IT.SV.SVNOMLBL" OrderNumber="31" Mandatory="No" Role="Timing" val:Core="SEND Only"/>
                <ItemRef ItemOID="IT.SV.SVRPDY" OrderNumber="32" Mandatory="No" Role="Timing" val:Core="SEND Only"/>
                <ItemRef ItemOID="IT.SV.SVRPSTDY" OrderNumber="33" Mandatory="No" Role="Timing" val:Core="SEND Only"/>
                <ItemRef ItemOID="IT.SV.SVRPENDY" OrderNumber="34" Mandatory="No" Role="Timing" val:Core="SEND Only"/>
                <ItemRef ItemOID="IT.SV.SVXDY" OrderNumber="35" Mandatory="No" Role="Timing" val:Core="Model Permissible"/>
                <ItemRef ItemOID="IT.SV.SVXSTDY" OrderNumber="36" Mandatory="No" Role="Timing" val:Core="Model Permissible"/>
                <ItemRef ItemOID="IT.SV.SVXENDY" OrderNumber="37" Mandatory="No" Role="Timing" val:Core="Model Permissible"/>
                <ItemRef ItemOID="IT.SV.SVCHDY" OrderNumber="38" Mandatory="No" Role="Timing" val:Core="Model Permissible"/>
                <ItemRef ItemOID="IT.SV.SVCHSTDY" OrderNumber="39" Mandatory="No" Role="Timing" val:Core="Model Permissible"/>
                <ItemRef ItemOID="IT.SV.SVCHENDY" OrderNumber="40" Mandatory="No" Role="Timing" val:Core="Model Permissible"/>
                <ItemRef ItemOID="IT.SV.SVDUR" OrderNumber="41" Mandatory="No" Role="Timing" val:Core="Model Permissible"/>
                <ItemRef ItemOID="IT.SV.SVTPT" OrderNumber="42" Mandatory="No" Role="Timing" val:Core="Prohibited"/>
                <ItemRef ItemOID="IT.SV.SVTPTNUM" OrderNumber="43" Mandatory="No" Role="Timing" val:Core="Prohibited"/>
                <ItemRef ItemOID="IT.SV.SVELTM" OrderNumber="44" Mandatory="No" Role="Timing" val:Core="Prohibited"/>
                <ItemRef ItemOID="IT.SV.SVTPTREF" OrderNumber="45" Mandatory="No" Role="Timing" val:Core="Prohibited"/>
                <ItemRef ItemOID="IT.SV.SVRFTDTC" OrderNumber="46" Mandatory="No" Role="Timing" val:Core="Prohibited"/>
                <ItemRef ItemOID="IT.SV.SVSTRF" OrderNumber="47" Mandatory="No" Role="Timing" val:Core="Model Permissible"/>
                <ItemRef ItemOID="IT.SV.SVENRF" OrderNumber="48" Mandatory="No" Role="Timing" val:Core="Model Permissible"/>
                <ItemRef ItemOID="IT.SV.SVEVLINT" OrderNumber="49" Mandatory="No" Role="Timing" val:Core="Model Permissible"/>
                <ItemRef ItemOID="IT.SV.SVEVINTX" OrderNumber="50" Mandatory="No" Role="Timing" val:Core="Model Permissible"/>
                <ItemRef ItemOID="IT.SV.SVSTRTPT" OrderNumber="51" Mandatory="No" Role="Timing" val:Core="Model Permissible"/>
                <ItemRef ItemOID="IT.SV.SVSTTPT" OrderNumber="52" Mandatory="No" Role="Timing" val:Core="Model Permissible"/>
                <ItemRef ItemOID="IT.SV.SVENRTPT" OrderNumber="53" Mandatory="No" Role="Timing" val:Core="Model Permissible"/>
                <ItemRef ItemOID="IT.SV.SVENTPT" OrderNumber="54" Mandatory="No" Role="Timing" val:Core="Model Permissible"/>
                <ItemRef ItemOID="IT.SV.SVSTINT" OrderNumber="55" Mandatory="No" Role="Timing" val:Core="Model Permissible"/>
                <ItemRef ItemOID="IT.SV.SVENINT" OrderNumber="56" Mandatory="No" Role="Timing" val:Core="Model Permissible"/>
                <ItemRef ItemOID="IT.SV.SVDETECT" OrderNumber="57" Mandatory="No" Role="Timing" val:Core="SEND Only"/>
                <ItemRef ItemOID="IT.SV.SVPTFL" OrderNumber="58" Mandatory="No" Role="Timing" val:Core="Prohibited"/>
                <ItemRef ItemOID="IT.SV.SVPDUR" OrderNumber="59" Mandatory="No" Role="Timing" val:Core="Prohibited"/>
                <ItemRef ItemOID="IT.SV.SVUPDES" OrderNumber="60" Mandatory="No" Role="Record Qualifier" val:Core="Permissible"/>
                <def:leaf ID="Location.SV" xlink:href="sv.xpt">
                    <def:title>sv.xpt</def:title>
                </def:leaf>
                <val:ValidationRuleRef RuleID="CT2001" Active="Yes"/>
                <val:ValidationRuleRef RuleID="CT2002" Active="Yes"/>
                <val:ValidationRuleRef RuleID="CT2003" Active="Yes"/>
                <val:ValidationRuleRef RuleID="CT2004" Active="Yes"/>
                <val:ValidationRuleRef RuleID="CT2005" Active="Yes"/>
                <val:ValidationRuleRef RuleID="CT2006" Active="Yes"/>
                <val:ValidationRuleRef RuleID="SD0001" Active="Yes"/>
                <val:ValidationRuleRef RuleID="SD0002" Active="Yes"/>
                <val:ValidationRuleRef RuleID="SD0003" Active="Yes"/>
                <val:ValidationRuleRef RuleID="SD0004" Active="Yes"/>
                <val:ValidationRuleRef RuleID="SD0005" Active="Yes"/>
                <val:ValidationRuleRef RuleID="SD0012" Active="Yes"/>
                <val:ValidationRuleRef RuleID="SD0013" Active="Yes"/>
                <val:ValidationRuleRef RuleID="SD0015" Active="Yes"/>
                <val:ValidationRuleRef RuleID="SD0031" Active="Yes"/>
                <val:ValidationRuleRef RuleID="SD0037" Active="Yes"/>
                <val:ValidationRuleRef RuleID="SD0038" Active="Yes"/>
                <val:ValidationRuleRef RuleID="SD0049" Active="Yes"/>
                <val:ValidationRuleRef RuleID="SD0050" Active="Yes"/>
                <val:ValidationRuleRef RuleID="SD0051" Active="Yes"/>
                <val:ValidationRuleRef RuleID="SD0052" Active="Yes"/>
                <val:ValidationRuleRef RuleID="SD0054" Active="Yes"/>
                <val:ValidationRuleRef RuleID="SD0055" Active="Yes"/>
                <val:ValidationRuleRef RuleID="SD0056" Active="Yes"/>
                <val:ValidationRuleRef RuleID="SD0057" Active="Yes"/>
                <val:ValidationRuleRef RuleID="SD0058" Active="Yes"/>
                <val:ValidationRuleRef RuleID="SD0059" Active="Yes"/>
                <val:ValidationRuleRef RuleID="SD0060" Active="Yes"/>
                <val:ValidationRuleRef RuleID="SD0062" Active="Yes"/>
                <val:ValidationRuleRef RuleID="SD0064" Active="Yes"/>
                <val:ValidationRuleRef RuleID="SD1005" Active="Yes"/>
                <val:ValidationRuleRef RuleID="SD1011" Active="Yes"/>
                <val:ValidationRuleRef RuleID="SD1014" Active="Yes"/>
                <val:ValidationRuleRef RuleID="SD1015" Active="Yes"/>
                <val:ValidationRuleRef RuleID="SD1017" Active="Yes"/>
                <val:ValidationRuleRef RuleID="SD1018" Active="Yes"/>
                <val:ValidationRuleRef RuleID="SD1019" Active="Yes"/>
                <val:ValidationRuleRef RuleID="SD1021" Active="Yes"/>
                <val:ValidationRuleRef RuleID="SD1030" Active="Yes"/>
                <val:ValidationRuleRef RuleID="SD1031" Active="Yes"/>
                <val:ValidationRuleRef RuleID="SD1060" Active="Yes"/>
                <val:ValidationRuleRef RuleID="SD1063" Active="Yes"/>
                <val:ValidationRuleRef RuleID="SD1071" Active="Yes"/>
                <val:ValidationRuleRef RuleID="SD1073" Active="Yes"/>
                <val:ValidationRuleRef RuleID="SD1074" Active="Yes"/>
                <val:ValidationRuleRef RuleID="SD1075" Active="Yes"/>
                <val:ValidationRuleRef RuleID="SD1076" Active="Yes"/>
                <val:ValidationRuleRef RuleID="SD1078" Active="Yes"/>
                <val:ValidationRuleRef RuleID="SD1079" Active="Yes"/>
                <val:ValidationRuleRef RuleID="SD1082" Active="Yes"/>
                <val:ValidationRuleRef RuleID="SD1083" Active="Yes"/>
                <val:ValidationRuleRef RuleID="SD1084" Active="Yes"/>
                <val:ValidationRuleRef RuleID="SD1085" Active="Yes"/>
                <val:ValidationRuleRef RuleID="SD1086" Active="Yes"/>
                <val:ValidationRuleRef RuleID="SD1087" Active="Yes"/>
                <val:ValidationRuleRef RuleID="SD1088" Active="Yes"/>
                <val:ValidationRuleRef RuleID="SD1089" Active="Yes"/>
                <val:ValidationRuleRef RuleID="SD1090" Active="Yes"/>
                <val:ValidationRuleRef RuleID="SD1091" Active="Yes"/>
                <val:ValidationRuleRef RuleID="SD1092" Active="Yes"/>
                <val:ValidationRuleRef RuleID="SD1093" Active="Yes"/>
                <val:ValidationRuleRef RuleID="SD1094" Active="Yes"/>
                <val:ValidationRuleRef RuleID="SD1101" Active="Yes"/>
                <val:ValidationRuleRef RuleID="SD1102" Active="Yes"/>
                <val:ValidationRuleRef RuleID="SD1103" Active="Yes"/>
                <val:ValidationRuleRef RuleID="SD1104" Active="Yes"/>
                <val:ValidationRuleRef RuleID="SD1152" Active="Yes"/>
                <val:ValidationRuleRef RuleID="SD1202" Active="Yes"/>
                <val:ValidationRuleRef RuleID="SD1203" Active="Yes"/>
                <val:ValidationRuleRef RuleID="SD1204" Active="Yes"/>
                <val:ValidationRuleRef RuleID="SD1228" Active="Yes"/>
                <val:ValidationRuleRef RuleID="SD1229" Active="Yes"/>
                <val:ValidationRuleRef RuleID="SD1230" Active="Yes"/>
                <val:ValidationRuleRef RuleID="SD1231" Active="Yes"/>
                <val:ValidationRuleRef RuleID="SD1238" Active="Yes"/>
                <val:ValidationRuleRef RuleID="SD1245" Active="Yes"/>
                <val:ValidationRuleRef RuleID="SD1246" Active="Yes"/>
                <val:ValidationRuleRef RuleID="SD1282" Active="Yes"/>
                <val:ValidationRuleRef RuleID="SD1291" Active="Yes"/>
                <val:ValidationRuleRef RuleID="SD1292" Active="Yes"/>
                <val:ValidationRuleRef RuleID="SD1300" Active="Yes"/>
                <val:ValidationRuleRef RuleID="SD1324" Active="Yes"/>
                <val:ValidationRuleRef RuleID="SD1325" Active="Yes"/>
                <val:ValidationRuleRef RuleID="SD1380" Active="Yes"/>
                <val:ValidationRuleRef RuleID="SD2024" Active="Yes"/>
                <val:ValidationRuleRef RuleID="SD2270" Active="Yes"/>
                <val:ValidationRuleRef RuleID="SD2271" Active="Yes"/>
                <val:ValidationRuleRef RuleID="SD2272" Active="Yes"/>
            </ItemGroupDef>
            <ItemGroupDef OID="IG.INTERVENTIONS" Name="INTERVENTIONS" Repeating="Yes" IsReferenceData="No" Purpose="Tabulation" def:Structure="One record per constant-dosing interval or intervention episode per subject" def:Class="INTERVENTIONS" def:ArchiveLocationID="Location.INTERVENTIONS">
                <Description>
                    <TranslatedText xml:lang="en">Interventions</TranslatedText>
                </Description>
                <ItemRef ItemOID="IT.INTERVENTIONS.STUDYID" OrderNumber="1" Mandatory="Yes" KeySequence="1" Role="Identifier" val:Core="Required"/>
                <ItemRef ItemOID="IT.INTERVENTIONS.DOMAIN" OrderNumber="2" Mandatory="Yes" Role="Identifier" val:Core="Required"/>
                <ItemRef ItemOID="IT.INTERVENTIONS.USUBJID" OrderNumber="3" Mandatory="No" KeySequence="2" Role="Identifier" val:Core="Expected"/>
                <ItemRef ItemOID="IT.INTERVENTIONS.POOLID" OrderNumber="4" Mandatory="No" Role="Identifier" val:Core="Model Permissible"/>
                <ItemRef ItemOID="IT.INTERVENTIONS.SPDEVID" OrderNumber="5" Mandatory="No" Role="Identifier" val:Core="Model Permissible"/>
                <ItemRef ItemOID="IT.INTERVENTIONS.NHOID" OrderNumber="6" Mandatory="No" Role="Identifier" val:Core="Model Permissible"/>
                <ItemRef ItemOID="IT.INTERVENTIONS.FETUSID" OrderNumber="7" Mandatory="No" Role="Identifier" val:Core="SEND Only"/>
                <ItemRef ItemOID="IT.INTERVENTIONS.FOCID" OrderNumber="8" Mandatory="No" Role="Identifier" val:Core="Model Permissible"/>
                <ItemRef ItemOID="IT.INTERVENTIONS.__SEQ" OrderNumber="9" Mandatory="Yes" Role="Identifier" val:Core="Required"/>
                <ItemRef ItemOID="IT.INTERVENTIONS.__GRPID" OrderNumber="10" Mandatory="No" Role="Identifier" val:Core="Permissible"/>
                <ItemRef ItemOID="IT.INTERVENTIONS.__REFID" OrderNumber="11" Mandatory="No" Role="Identifier" val:Core="Permissible"/>
                <ItemRef ItemOID="IT.INTERVENTIONS.__RECID" OrderNumber="12" Mandatory="No" Role="Identifier" val:Core="Model Permissible"/>
                <ItemRef ItemOID="IT.INTERVENTIONS.__SPID" OrderNumber="13" Mandatory="No" Role="Identifier" val:Core="Permissible"/>
                <ItemRef ItemOID="IT.INTERVENTIONS.__LNKID" OrderNumber="14" Mandatory="No" Role="Identifier" val:Core="Permissible"/>
                <ItemRef ItemOID="IT.INTERVENTIONS.__LNKGRP" OrderNumber="15" Mandatory="No" Role="Identifier" val:Core="Permissible"/>
                <ItemRef ItemOID="IT.INTERVENTIONS.__TRT" OrderNumber="16" Mandatory="Yes" KeySequence="3" Role="Topic" val:Core="Required"/>
                <ItemRef ItemOID="IT.INTERVENTIONS.__MODIFY" OrderNumber="17" Mandatory="No" Role="Synonym Qualifier" val:Core="Permissible"/>
                <ItemRef ItemOID="IT.INTERVENTIONS.__DECOD" OrderNumber="18" Mandatory="No" Role="Synonym Qualifier" val:Core="Permissible"/>
                <ItemRef ItemOID="IT.INTERVENTIONS.__MOOD" OrderNumber="19" Mandatory="No" Role="Record Qualifier" val:Core="Permissible"/>
                <ItemRef ItemOID="IT.INTERVENTIONS.__CAT" OrderNumber="20" Mandatory="No" Role="Grouping Qualifier" val:Core="Permissible"/>
                <ItemRef ItemOID="IT.INTERVENTIONS.__SCAT" OrderNumber="21" Mandatory="No" Role="Grouping Qualifier" val:Core="Permissible"/>
                <ItemRef ItemOID="IT.INTERVENTIONS.__PRESP" OrderNumber="22" Mandatory="No" Role="Variable Qualifier" val:Core="Permissible"/>
                <ItemRef ItemOID="IT.INTERVENTIONS.__OCCUR" OrderNumber="23" Mandatory="No" Role="Record Qualifier" val:Core="Permissible"/>
                <ItemRef ItemOID="IT.INTERVENTIONS.__REASOC" OrderNumber="24" Mandatory="No" Role="Record Qualifier" val:Core="Model Permissible"/>
                <ItemRef ItemOID="IT.INTERVENTIONS.__STAT" OrderNumber="25" Mandatory="No" Role="Record Qualifier" val:Core="Permissible"/>
                <ItemRef ItemOID="IT.INTERVENTIONS.__REASND" OrderNumber="26" Mandatory="No" Role="Record Qualifier" val:Core="Permissible"/>
                <ItemRef ItemOID="IT.INTERVENTIONS.__CNTMOD" OrderNumber="27" Mandatory="No" Role="Record Qualifier" val:Core="Model Permissible"/>
                <ItemRef ItemOID="IT.INTERVENTIONS.__EPCHGI" OrderNumber="28" Mandatory="No" Role="Record Qualifier" val:Core="Model Permissible"/>
                <ItemRef ItemOID="IT.INTERVENTIONS.__INDC" OrderNumber="29" Mandatory="No" Role="Record Qualifier" val:Core="Permissible"/>
                <ItemRef ItemOID="IT.INTERVENTIONS.__CLAS" OrderNumber="30" Mandatory="No" Role="Variable Qualifier" val:Core="Permissible"/>
                <ItemRef ItemOID="IT.INTERVENTIONS.__CLASCD" OrderNumber="31" Mandatory="No" Role="Variable Qualifier" val:Core="Permissible"/>
                <ItemRef ItemOID="IT.INTERVENTIONS.__DOSE" OrderNumber="32" Mandatory="No" Role="Record Qualifier" val:Core="Permissible"/>
                <ItemRef ItemOID="IT.INTERVENTIONS.__DOSTXT" OrderNumber="33" Mandatory="No" Role="Record Qualifier" val:Core="Permissible"/>
                <ItemRef ItemOID="IT.INTERVENTIONS.__DOSU" OrderNumber="34" Mandatory="No" Role="Variable Qualifier" val:Core="Permissible"/>
                <ItemRef ItemOID="IT.INTERVENTIONS.__TDOSD" OrderNumber="35" Mandatory="No" Role="Record Qualifier" val:Core="Model Permissible"/>
                <ItemRef ItemOID="IT.INTERVENTIONS.__FTDOSD" OrderNumber="36" Mandatory="No" Role="Variable Qualifier" val:Core="Model Permissible"/>
                <ItemRef ItemOID="IT.INTERVENTIONS.__DOSFRM" OrderNumber="37" Mandatory="No" Role="Variable Qualifier" val:Core="Permissible"/>
                <ItemRef ItemOID="IT.INTERVENTIONS.__DOSFRQ" OrderNumber="38" Mandatory="No" Role="Record Qualifier" val:Core="Permissible"/>
                <ItemRef ItemOID="IT.INTERVENTIONS.__DOSTOT" OrderNumber="39" Mandatory="No" Role="Record Qualifier" val:Core="Permissible"/>
                <ItemRef ItemOID="IT.INTERVENTIONS.__DOSRGM" OrderNumber="40" Mandatory="No" Role="Record Qualifier" val:Core="Permissible"/>
                <ItemRef ItemOID="IT.INTERVENTIONS.__ROUTE" OrderNumber="41" Mandatory="No" Role="Record Qualifier" val:Core="Permissible"/>
                <ItemRef ItemOID="IT.INTERVENTIONS.__LOT" OrderNumber="42" Mandatory="No" Role="Record Qualifier" val:Core="Permissible"/>
                <ItemRef ItemOID="IT.INTERVENTIONS.__LOC" OrderNumber="43" Mandatory="No" Role="Record Qualifier" val:Core="Permissible"/>
                <ItemRef ItemOID="IT.INTERVENTIONS.__METHOD" OrderNumber="44" Mandatory="No" Role="Record Qualifier" val:Core="Prohibited"/>
                <ItemRef ItemOID="IT.INTERVENTIONS.__LAT" OrderNumber="45" Mandatory="No" Role="Variable Qualifier" val:Core="Permissible"/>
                <ItemRef ItemOID="IT.INTERVENTIONS.__DIR" OrderNumber="46" Mandatory="No" Role="Variable Qualifier" val:Core="Permissible"/>
                <ItemRef ItemOID="IT.INTERVENTIONS.__PORTOT" OrderNumber="47" Mandatory="No" Role="Variable Qualifier" val:Core="Permissible"/>
                <ItemRef ItemOID="IT.INTERVENTIONS.__FAST" OrderNumber="48" Mandatory="No" Role="Record Qualifier" val:Core="Permissible"/>
                <ItemRef ItemOID="IT.INTERVENTIONS.__PSTRG" OrderNumber="49" Mandatory="No" Role="Record Qualifier" val:Core="Permissible"/>
                <ItemRef ItemOID="IT.INTERVENTIONS.__PSTRGU" OrderNumber="50" Mandatory="No" Role="Variable Qualifier" val:Core="Permissible"/>
                <ItemRef ItemOID="IT.INTERVENTIONS.__TRTV" OrderNumber="51" Mandatory="No" Role="Record Qualifier" val:Core="Permissible"/>
                <ItemRef ItemOID="IT.INTERVENTIONS.__VAMT" OrderNumber="52" Mandatory="No" Role="Record Qualifier" val:Core="Permissible"/>
                <ItemRef ItemOID="IT.INTERVENTIONS.__VAMTU" OrderNumber="53" Mandatory="No" Role="Variable Qualifier" val:Core="Permissible"/>
                <ItemRef ItemOID="IT.INTERVENTIONS.__ADJ" OrderNumber="54" Mandatory="No" Role="Record Qualifier" val:Core="Permissible"/>
                <ItemRef ItemOID="IT.INTERVENTIONS.__RSDISC" OrderNumber="55" Mandatory="No" Role="Record Qualifier" val:Core="Model Permissible"/>
                <ItemRef ItemOID="IT.INTERVENTIONS.__USCHFL" OrderNumber="56" Mandatory="No" Role="Record Qualifier" val:Core="SEND Only"/>
                <ItemRef ItemOID="IT.INTERVENTIONS.__RSTIND" OrderNumber="57" Mandatory="No" Role="Record Qualifier" val:Core="SEND Only"/>
                <ItemRef ItemOID="IT.INTERVENTIONS.__RSTMOD" OrderNumber="58" Mandatory="No" Role="Record Qualifier" val:Core="SEND Only"/>
                <ItemRef ItemOID="IT.INTERVENTIONS.VISITNUM" OrderNumber="59" Mandatory="No" Role="Timing" val:Core="Permissible"/>
                <ItemRef ItemOID="IT.INTERVENTIONS.VISIT" OrderNumber="60" Mandatory="No" Role="Timing" val:Core="Permissible"/>
                <ItemRef ItemOID="IT.INTERVENTIONS.VISITDY" OrderNumber="61" Mandatory="No" Role="Timing" val:Core="Permissible"/>
                <ItemRef ItemOID="IT.INTERVENTIONS.TAETORD" OrderNumber="62" Mandatory="No" Role="Timing" val:Core="Permissible"/>
                <ItemRef ItemOID="IT.INTERVENTIONS.EPOCH" OrderNumber="63" Mandatory="No" Role="Timing" val:Core="Permissible"/>
                <ItemRef ItemOID="IT.INTERVENTIONS.RPHASE" OrderNumber="64" Mandatory="No" Role="Timing" val:Core="SEND Only"/>
                <ItemRef ItemOID="IT.INTERVENTIONS.RPPLDY" OrderNumber="65" Mandatory="No" Role="Timing" val:Core="SEND Only"/>
                <ItemRef ItemOID="IT.INTERVENTIONS.RPPLSTDY" OrderNumber="66" Mandatory="No" Role="Timing" val:Core="SEND Only"/>
                <ItemRef ItemOID="IT.INTERVENTIONS.RPPLENDY" OrderNumber="67" Mandatory="No" Role="Timing" val:Core="SEND Only"/>
                <ItemRef ItemOID="IT.INTERVENTIONS.__DTC" OrderNumber="68" Mandatory="No" Role="Timing" val:Core="Permissible"/>
                <ItemRef ItemOID="IT.INTERVENTIONS.__STDTC" OrderNumber="69" Mandatory="No" KeySequence="4" Role="Timing" val:Core="Permissible"/>
                <ItemRef ItemOID="IT.INTERVENTIONS.__ENDTC" OrderNumber="70" Mandatory="No" Role="Timing" val:Core="Permissible"/>
                <ItemRef ItemOID="IT.INTERVENTIONS.__DY" OrderNumber="71" Mandatory="No" Role="Timing" val:Core="Permissible"/>
                <ItemRef ItemOID="IT.INTERVENTIONS.__STDY" OrderNumber="72" Mandatory="No" Role="Timing" val:Core="Permissible"/>
                <ItemRef ItemOID="IT.INTERVENTIONS.__ENDY" OrderNumber="73" Mandatory="No" Role="Timing" val:Core="Permissible"/>
                <ItemRef ItemOID="IT.INTERVENTIONS.__NOMDY" OrderNumber="74" Mandatory="No" Role="Timing" val:Core="SEND Only"/>
                <ItemRef ItemOID="IT.INTERVENTIONS.__NOMLBL" OrderNumber="75" Mandatory="No" Role="Timing" val:Core="SEND Only"/>
                <ItemRef ItemOID="IT.INTERVENTIONS.__RPDY" OrderNumber="76" Mandatory="No" Role="Timing" val:Core="SEND Only"/>
                <ItemRef ItemOID="IT.INTERVENTIONS.__RPSTDY" OrderNumber="77" Mandatory="No" Role="Timing" val:Core="SEND Only"/>
                <ItemRef ItemOID="IT.INTERVENTIONS.__RPENDY" OrderNumber="78" Mandatory="No" Role="Timing" val:Core="SEND Only"/>
                <ItemRef ItemOID="IT.INTERVENTIONS.__XDY" OrderNumber="79" Mandatory="No" Role="Timing" val:Core="Model Permissible"/>
                <ItemRef ItemOID="IT.INTERVENTIONS.__XSTDY" OrderNumber="80" Mandatory="No" Role="Timing" val:Core="Model Permissible"/>
                <ItemRef ItemOID="IT.INTERVENTIONS.__XENDY" OrderNumber="81" Mandatory="No" Role="Timing" val:Core="Model Permissible"/>
                <ItemRef ItemOID="IT.INTERVENTIONS.__CHDY" OrderNumber="82" Mandatory="No" Role="Timing" val:Core="Model Permissible"/>
                <ItemRef ItemOID="IT.INTERVENTIONS.__CHSTDY" OrderNumber="83" Mandatory="No" Role="Timing" val:Core="Model Permissible"/>
                <ItemRef ItemOID="IT.INTERVENTIONS.__CHENDY" OrderNumber="84" Mandatory="No" Role="Timing" val:Core="Model Permissible"/>
                <ItemRef ItemOID="IT.INTERVENTIONS.__DUR" OrderNumber="85" Mandatory="No" Role="Timing" val:Core="Permissible"/>
                <ItemRef ItemOID="IT.INTERVENTIONS.__TPT" OrderNumber="86" Mandatory="No" Role="Timing" val:Core="Permissible"/>
                <ItemRef ItemOID="IT.INTERVENTIONS.__TPTNUM" OrderNumber="87" Mandatory="No" Role="Timing" val:Core="Permissible"/>
                <ItemRef ItemOID="IT.INTERVENTIONS.__ELTM" OrderNumber="88" Mandatory="No" Role="Timing" val:Core="Permissible"/>
                <ItemRef ItemOID="IT.INTERVENTIONS.__TPTREF" OrderNumber="89" Mandatory="No" Role="Timing" val:Core="Permissible"/>
                <ItemRef ItemOID="IT.INTERVENTIONS.__RFTDTC" OrderNumber="90" Mandatory="No" Role="Timing" val:Core="Permissible"/>
                <ItemRef ItemOID="IT.INTERVENTIONS.__STRF" OrderNumber="91" Mandatory="No" Role="Timing" val:Core="Permissible"/>
                <ItemRef ItemOID="IT.INTERVENTIONS.__ENRF" OrderNumber="92" Mandatory="No" Role="Timing" val:Core="Permissible"/>
                <ItemRef ItemOID="IT.INTERVENTIONS.__EVLINT" OrderNumber="93" Mandatory="No" Role="Timing" val:Core="Permissible"/>
                <ItemRef ItemOID="IT.INTERVENTIONS.__EVINTX" OrderNumber="94" Mandatory="No" Role="Timing" val:Core="Permissible"/>
                <ItemRef ItemOID="IT.INTERVENTIONS.__STRTPT" OrderNumber="95" Mandatory="No" Role="Timing" val:Core="Permissible"/>
                <ItemRef ItemOID="IT.INTERVENTIONS.__STTPT" OrderNumber="96" Mandatory="No" Role="Timing" val:Core="Permissible"/>
                <ItemRef ItemOID="IT.INTERVENTIONS.__ENRTPT" OrderNumber="97" Mandatory="No" Role="Timing" val:Core="Permissible"/>
                <ItemRef ItemOID="IT.INTERVENTIONS.__ENTPT" OrderNumber="98" Mandatory="No" Role="Timing" val:Core="Permissible"/>
                <ItemRef ItemOID="IT.INTERVENTIONS.MIDS" OrderNumber="99" Mandatory="No" Role="Timing" val:Core="Model Permissible"/>
                <ItemRef ItemOID="IT.INTERVENTIONS.RELMIDS" OrderNumber="100" Mandatory="No" Role="Timing" val:Core="Model Permissible"/>
                <ItemRef ItemOID="IT.INTERVENTIONS.MIDSDTC" OrderNumber="101" Mandatory="No" Role="Timing" val:Core="Model Permissible"/>
                <ItemRef ItemOID="IT.INTERVENTIONS.__STINT" OrderNumber="102" Mandatory="No" Role="Timing" val:Core="Permissible"/>
                <ItemRef ItemOID="IT.INTERVENTIONS.__ENINT" OrderNumber="103" Mandatory="No" Role="Timing" val:Core="Permissible"/>
                <ItemRef ItemOID="IT.INTERVENTIONS.__DETECT" OrderNumber="104" Mandatory="No" Role="Timing" val:Core="SEND Only"/>
                <ItemRef ItemOID="IT.INTERVENTIONS.__PTFL" OrderNumber="105" Mandatory="No" Role="Timing" val:Core="Prohibited"/>
                <ItemRef ItemOID="IT.INTERVENTIONS.__PDUR" OrderNumber="106" Mandatory="No" Role="Timing" val:Core="Prohibited"/>
                <def:leaf ID="Location.INTERVENTIONS" xlink:href="interventions.xpt">
                    <def:title>interventions.xpt</def:title>
                </def:leaf>
                <val:ValidationRuleRef RuleID="CT2001" Active="Yes"/>
                <val:ValidationRuleRef RuleID="CT2002" Active="Yes"/>
                <val:ValidationRuleRef RuleID="CT2003" Active="Yes"/>
                <val:ValidationRuleRef RuleID="CT2004" Active="Yes"/>
                <val:ValidationRuleRef RuleID="CT2005" Active="Yes"/>
                <val:ValidationRuleRef RuleID="CT2006" Active="Yes"/>
                <val:ValidationRuleRef RuleID="SD0001" Active="Yes"/>
                <val:ValidationRuleRef RuleID="SD0002" Active="Yes"/>
                <val:ValidationRuleRef RuleID="SD0003" Active="Yes"/>
                <val:ValidationRuleRef RuleID="SD0004" Active="Yes"/>
                <val:ValidationRuleRef RuleID="SD0005" Active="Yes"/>
                <val:ValidationRuleRef RuleID="SD0012" Active="Yes"/>
                <val:ValidationRuleRef RuleID="SD0013" Active="Yes"/>
                <val:ValidationRuleRef RuleID="SD0014" Active="Yes"/>
                <val:ValidationRuleRef RuleID="SD0015" Active="Yes"/>
                <val:ValidationRuleRef RuleID="SD0022" Active="Yes"/>
                <val:ValidationRuleRef RuleID="SD0023" Active="Yes"/>
                <val:ValidationRuleRef RuleID="SD0031" Active="Yes"/>
                <val:ValidationRuleRef RuleID="SD0032" Active="Yes"/>
                <val:ValidationRuleRef RuleID="SD0033" Active="Yes"/>
                <val:ValidationRuleRef RuleID="SD0034" Active="Yes"/>
                <val:ValidationRuleRef RuleID="SD0035" Active="Yes"/>
                <val:ValidationRuleRef RuleID="SD0037" Active="Yes"/>
                <val:ValidationRuleRef RuleID="SD0038" Active="Yes"/>
                <val:ValidationRuleRef RuleID="SD0041" Active="Yes"/>
                <val:ValidationRuleRef RuleID="SD0042" Active="Yes"/>
                <val:ValidationRuleRef RuleID="SD0043" Active="Yes"/>
                <val:ValidationRuleRef RuleID="SD0044" Active="Yes"/>
                <val:ValidationRuleRef RuleID="SD0049" Active="Yes"/>
                <val:ValidationRuleRef RuleID="SD0050" Active="Yes"/>
                <val:ValidationRuleRef RuleID="SD0051" Active="Yes"/>
                <val:ValidationRuleRef RuleID="SD0052" Active="Yes"/>
                <val:ValidationRuleRef RuleID="SD0054" Active="Yes"/>
                <val:ValidationRuleRef RuleID="SD0055" Active="Yes"/>
                <val:ValidationRuleRef RuleID="SD0056" Active="Yes"/>
                <val:ValidationRuleRef RuleID="SD0057" Active="Yes"/>
                <val:ValidationRuleRef RuleID="SD0058" Active="Yes"/>
                <val:ValidationRuleRef RuleID="SD0059" Active="Yes"/>
                <val:ValidationRuleRef RuleID="SD0060" Active="Yes"/>
                <val:ValidationRuleRef RuleID="SD0062" Active="Yes"/>
                <val:ValidationRuleRef RuleID="SD0064" Active="Yes"/>
                <val:ValidationRuleRef RuleID="SD0065" Active="Yes"/>
                <val:ValidationRuleRef RuleID="SD1005" Active="Yes"/>
                <val:ValidationRuleRef RuleID="SD1011" Active="Yes"/>
                <val:ValidationRuleRef RuleID="SD1014" Active="Yes"/>
                <val:ValidationRuleRef RuleID="SD1021" Active="Yes"/>
                <val:ValidationRuleRef RuleID="SD1023" Active="Yes"/>
                <val:ValidationRuleRef RuleID="SD1030" Active="Yes"/>
                <val:ValidationRuleRef RuleID="SD1031" Active="Yes"/>
                <val:ValidationRuleRef RuleID="SD1039" Active="Yes"/>
                <val:ValidationRuleRef RuleID="SD1040" Active="Yes"/>
                <val:ValidationRuleRef RuleID="SD1041" Active="Yes"/>
                <val:ValidationRuleRef RuleID="SD1042" Active="Yes"/>
                <val:ValidationRuleRef RuleID="SD1047" Active="Yes"/>
                <val:ValidationRuleRef RuleID="SD1063" Active="Yes"/>
                <val:ValidationRuleRef RuleID="SD1071" Active="Yes"/>
                <val:ValidationRuleRef RuleID="SD1073" Active="Yes"/>
                <val:ValidationRuleRef RuleID="SD1074" Active="Yes"/>
                <val:ValidationRuleRef RuleID="SD1075" Active="Yes"/>
                <val:ValidationRuleRef RuleID="SD1077" Active="Yes"/>
                <val:ValidationRuleRef RuleID="SD1079" Active="Yes"/>
                <val:ValidationRuleRef RuleID="SD1082" Active="Yes"/>
                <val:ValidationRuleRef RuleID="SD1083" Active="Yes"/>
                <val:ValidationRuleRef RuleID="SD1084" Active="Yes"/>
                <val:ValidationRuleRef RuleID="SD1085" Active="Yes"/>
                <val:ValidationRuleRef RuleID="SD1086" Active="Yes"/>
                <val:ValidationRuleRef RuleID="SD1087" Active="Yes"/>
                <val:ValidationRuleRef RuleID="SD1088" Active="Yes"/>
                <val:ValidationRuleRef RuleID="SD1089" Active="Yes"/>
                <val:ValidationRuleRef RuleID="SD1090" Active="Yes"/>
                <val:ValidationRuleRef RuleID="SD1091" Active="Yes"/>
                <val:ValidationRuleRef RuleID="SD1092" Active="Yes"/>
                <val:ValidationRuleRef RuleID="SD1093" Active="Yes"/>
                <val:ValidationRuleRef RuleID="SD1094" Active="Yes"/>
                <val:ValidationRuleRef RuleID="SD1095" Active="Yes"/>
                <val:ValidationRuleRef RuleID="SD1098" Active="Yes"/>
                <val:ValidationRuleRef RuleID="SD1099" Active="Yes"/>
                <val:ValidationRuleRef RuleID="SD1101" Active="Yes"/>
                <val:ValidationRuleRef RuleID="SD1102" Active="Yes"/>
                <val:ValidationRuleRef RuleID="SD1103" Active="Yes"/>
                <val:ValidationRuleRef RuleID="SD1104" Active="Yes"/>
                <val:ValidationRuleRef RuleID="SD1116" Active="Yes"/>
                <val:ValidationRuleRef RuleID="SD1125" Active="Yes"/>
                <val:ValidationRuleRef RuleID="SD1126" Active="Yes"/>
                <val:ValidationRuleRef RuleID="SD1127" Active="Yes"/>
                <val:ValidationRuleRef RuleID="SD1147" Active="Yes"/>
                <val:ValidationRuleRef RuleID="SD1152" Active="Yes"/>
                <val:ValidationRuleRef RuleID="SD1202" Active="Yes"/>
                <val:ValidationRuleRef RuleID="SD1203" Active="Yes"/>
                <val:ValidationRuleRef RuleID="SD1204" Active="Yes"/>
                <val:ValidationRuleRef RuleID="SD1228" Active="Yes"/>
                <val:ValidationRuleRef RuleID="SD1229" Active="Yes"/>
                <val:ValidationRuleRef RuleID="SD1230" Active="Yes"/>
                <val:ValidationRuleRef RuleID="SD1231" Active="Yes"/>
                <val:ValidationRuleRef RuleID="SD1233" Active="Yes"/>
                <val:ValidationRuleRef RuleID="SD1238" Active="Yes"/>
                <val:ValidationRuleRef RuleID="SD1244" Active="Yes"/>
                <val:ValidationRuleRef RuleID="SD1245" Active="Yes"/>
                <val:ValidationRuleRef RuleID="SD1246" Active="Yes"/>
                <val:ValidationRuleRef RuleID="SD1250" Active="Yes"/>
                <val:ValidationRuleRef RuleID="SD1251" Active="Yes"/>
                <val:ValidationRuleRef RuleID="SD1273" Active="Yes"/>
                <val:ValidationRuleRef RuleID="SD1276" Active="Yes"/>
                <val:ValidationRuleRef RuleID="SD1282" Active="Yes"/>
                <val:ValidationRuleRef RuleID="SD1283" Active="Yes"/>
                <val:ValidationRuleRef RuleID="SD1284" Active="Yes"/>
                <val:ValidationRuleRef RuleID="SD1285" Active="Yes"/>
                <val:ValidationRuleRef RuleID="SD1291" Active="Yes"/>
                <val:ValidationRuleRef RuleID="SD1292" Active="Yes"/>
                <val:ValidationRuleRef RuleID="SD1293" Active="Yes"/>
                <val:ValidationRuleRef RuleID="SD1294" Active="Yes"/>
                <val:ValidationRuleRef RuleID="SD1299" Active="Yes"/>
                <val:ValidationRuleRef RuleID="SD1300" Active="Yes"/>
                <val:ValidationRuleRef RuleID="SD1324" Active="Yes"/>
                <val:ValidationRuleRef RuleID="SD1325" Active="Yes"/>
                <val:ValidationRuleRef RuleID="SD1331" Active="Yes"/>
                <val:ValidationRuleRef RuleID="SD1339" Active="Yes"/>
                <val:ValidationRuleRef RuleID="SD1380" Active="Yes"/>
                <val:ValidationRuleRef RuleID="SD1452" Active="Yes"/>
                <val:ValidationRuleRef RuleID="SD2024" Active="Yes"/>
                <val:ValidationRuleRef RuleID="SD2238" Active="Yes"/>
                <val:ValidationRuleRef RuleID="SD2270" Active="Yes"/>
                <val:ValidationRuleRef RuleID="SD2271" Active="Yes"/>
                <val:ValidationRuleRef RuleID="SD2272" Active="Yes"/>
            </ItemGroupDef>
            <ItemGroupDef OID="IG.AG" Name="AG" Repeating="Yes" IsReferenceData="No" Purpose="Tabulation" def:Structure="One record per recorded intervention occurrence per subject" def:Class="INTERVENTIONS" def:ArchiveLocationID="Location.AG">
                <Description>
                    <TranslatedText xml:lang="en">Procedure Agents</TranslatedText>
                </Description>
                <ItemRef ItemOID="IT.AG.STUDYID" OrderNumber="1" Mandatory="Yes" KeySequence="1" Role="Identifier" val:Core="Required"/>
                <ItemRef ItemOID="IT.AG.DOMAIN" OrderNumber="2" Mandatory="Yes" Role="Identifier" val:Core="Required"/>
                <ItemRef ItemOID="IT.AG.USUBJID" OrderNumber="3" Mandatory="Yes" KeySequence="2" Role="Identifier" val:Core="Required"/>
                <ItemRef ItemOID="IT.AG.POOLID" OrderNumber="4" Mandatory="No" Role="Identifier" val:Core="Model Permissible"/>
                <ItemRef ItemOID="IT.AG.SPDEVID" OrderNumber="5" Mandatory="No" Role="Identifier" val:Core="Model Permissible"/>
                <ItemRef ItemOID="IT.AG.NHOID" OrderNumber="6" Mandatory="No" Role="Identifier" val:Core="Model Permissible"/>
                <ItemRef ItemOID="IT.AG.FETUSID" OrderNumber="7" Mandatory="No" Role="Identifier" val:Core="SEND Only"/>
                <ItemRef ItemOID="IT.AG.FOCID" OrderNumber="8" Mandatory="No" Role="Identifier" val:Core="Model Permissible"/>
                <ItemRef ItemOID="IT.AG.AGSEQ" OrderNumber="9" Mandatory="Yes" Role="Identifier" val:Core="Required"/>
                <ItemRef ItemOID="IT.AG.AGGRPID" OrderNumber="10" Mandatory="No" Role="Identifier" val:Core="Permissible"/>
                <ItemRef ItemOID="IT.AG.AGREFID" OrderNumber="11" Mandatory="No" Role="Identifier" val:Core="Model Permissible"/>
                <ItemRef ItemOID="IT.AG.AGRECID" OrderNumber="12" Mandatory="No" Role="Identifier" val:Core="Model Permissible"/>
                <ItemRef ItemOID="IT.AG.AGSPID" OrderNumber="13" Mandatory="No" Role="Identifier" val:Core="Permissible"/>
                <ItemRef ItemOID="IT.AG.AGLNKID" OrderNumber="14" Mandatory="No" Role="Identifier" val:Core="Permissible"/>
                <ItemRef ItemOID="IT.AG.AGLNKGRP" OrderNumber="15" Mandatory="No" Role="Identifier" val:Core="Permissible"/>
                <ItemRef ItemOID="IT.AG.AGTRT" OrderNumber="16" Mandatory="Yes" KeySequence="3" Role="Topic" val:Core="Required"/>
                <ItemRef ItemOID="IT.AG.AGMODIFY" OrderNumber="17" Mandatory="No" Role="Synonym Qualifier" val:Core="Permissible"/>
                <ItemRef ItemOID="IT.AG.AGDECOD" OrderNumber="18" Mandatory="No" Role="Synonym Qualifier" val:Core="Permissible"/>
                <ItemRef ItemOID="IT.AG.AGMOOD" OrderNumber="19" Mandatory="No" Role="Record Qualifier" val:Core="Model Permissible"/>
                <ItemRef ItemOID="IT.AG.AGCAT" OrderNumber="20" Mandatory="No" Role="Grouping Qualifier" val:Core="Permissible"/>
                <ItemRef ItemOID="IT.AG.AGSCAT" OrderNumber="21" Mandatory="No" Role="Grouping Qualifier" val:Core="Permissible"/>
                <ItemRef ItemOID="IT.AG.AGPRESP" OrderNumber="22" Mandatory="No" Role="Variable Qualifier" val:Core="Permissible"/>
                <ItemRef ItemOID="IT.AG.AGOCCUR" OrderNumber="23" Mandatory="No" Role="Record Qualifier" val:Core="Permissible"/>
                <ItemRef ItemOID="IT.AG.AGREASOC" OrderNumber="24" Mandatory="No" Role="Record Qualifier" val:Core="Model Permissible"/>
                <ItemRef ItemOID="IT.AG.AGSTAT" OrderNumber="25" Mandatory="No" Role="Record Qualifier" val:Core="Permissible"/>
                <ItemRef ItemOID="IT.AG.AGREASND" OrderNumber="26" Mandatory="No" Role="Record Qualifier" val:Core="Permissible"/>
                <ItemRef ItemOID="IT.AG.AGCNTMOD" OrderNumber="27" Mandatory="No" Role="Record Qualifier" val:Core="Model Permissible"/>
                <ItemRef ItemOID="IT.AG.AGEPCHGI" OrderNumber="28" Mandatory="No" Role="Record Qualifier" val:Core="Model Permissible"/>
                <ItemRef ItemOID="IT.AG.AGINDC" OrderNumber="29" Mandatory="No" Role="Record Qualifier" val:Core="Not Recommended"/>
                <ItemRef ItemOID="IT.AG.AGCLAS" OrderNumber="30" Mandatory="No" Role="Variable Qualifier" val:Core="Permissible"/>
                <ItemRef ItemOID="IT.AG.AGCLASCD" OrderNumber="31" Mandatory="No" Role="Variable Qualifier" val:Core="Permissible"/>
                <ItemRef ItemOID="IT.AG.AGDOSE" OrderNumber="32" Mandatory="No" Role="Record Qualifier" val:Core="Permissible"/>
                <ItemRef ItemOID="IT.AG.AGDOSTXT" OrderNumber="33" Mandatory="No" Role="Record Qualifier" val:Core="Permissible"/>
                <ItemRef ItemOID="IT.AG.AGDOSU" OrderNumber="34" Mandatory="No" Role="Variable Qualifier" val:Core="Permissible"/>
                <ItemRef ItemOID="IT.AG.AGTDOSD" OrderNumber="35" Mandatory="No" Role="Record Qualifier" val:Core="Model Permissible"/>
                <ItemRef ItemOID="IT.AG.AGFTDOSD" OrderNumber="36" Mandatory="No" Role="Variable Qualifier" val:Core="Model Permissible"/>
                <ItemRef ItemOID="IT.AG.AGDOSFRM" OrderNumber="37" Mandatory="No" Role="Variable Qualifier" val:Core="Permissible"/>
                <ItemRef ItemOID="IT.AG.AGDOSFRQ" OrderNumber="38" Mandatory="No" Role="Record Qualifier" val:Core="Permissible"/>
                <ItemRef ItemOID="IT.AG.AGDOSTOT" OrderNumber="39" Mandatory="No" Role="Record Qualifier" val:Core="Not Recommended"/>
                <ItemRef ItemOID="IT.AG.AGDOSRGM" OrderNumber="40" Mandatory="No" Role="Record Qualifier" val:Core="Not Recommended"/>
                <ItemRef ItemOID="IT.AG.AGROUTE" OrderNumber="41" Mandatory="No" Role="Variable Qualifier" val:Core="Permissible"/>
                <ItemRef ItemOID="IT.AG.AGLOT" OrderNumber="42" Mandatory="No" Role="Record Qualifier" val:Core="Model Permissible"/>
                <ItemRef ItemOID="IT.AG.AGLOC" OrderNumber="43" Mandatory="No" Role="Record Qualifier" val:Core="Model Permissible"/>
                <ItemRef ItemOID="IT.AG.AGMETHOD" OrderNumber="44" Mandatory="No" Role="Record Qualifier" val:Core="Prohibited"/>
                <ItemRef ItemOID="IT.AG.AGLAT" OrderNumber="45" Mandatory="No" Role="Variable Qualifier" val:Core="Model Permissible"/>
                <ItemRef ItemOID="IT.AG.AGDIR" OrderNumber="46" Mandatory="No" Role="Variable Qualifier" val:Core="Model Permissible"/>
                <ItemRef ItemOID="IT.AG.AGPORTOT" OrderNumber="47" Mandatory="No" Role="Variable Qualifier" val:Core="Model Permissible"/>
                <ItemRef ItemOID="IT.AG.AGFAST" OrderNumber="48" Mandatory="No" Role="Record Qualifier" val:Core="Model Permissible"/>
                <ItemRef ItemOID="IT.AG.AGPSTRG" OrderNumber="49" Mandatory="No" Role="Record Qualifier" val:Core="Model Permissible"/>
                <ItemRef ItemOID="IT.AG.AGPSTRGU" OrderNumber="50" Mandatory="No" Role="Variable Qualifier" val:Core="Model Permissible"/>
                <ItemRef ItemOID="IT.AG.AGTRTV" OrderNumber="51" Mandatory="No" Role="Record Qualifier" val:Core="Model Permissible"/>
                <ItemRef ItemOID="IT.AG.AGVAMT" OrderNumber="52" Mandatory="No" Role="Record Qualifier" val:Core="Model Permissible"/>
                <ItemRef ItemOID="IT.AG.AGVAMTU" OrderNumber="53" Mandatory="No" Role="Variable Qualifier" val:Core="Model Permissible"/>
                <ItemRef ItemOID="IT.AG.AGADJ" OrderNumber="54" Mandatory="No" Role="Record Qualifier" val:Core="Model Permissible"/>
                <ItemRef ItemOID="IT.AG.AGRSDISC" OrderNumber="55" Mandatory="No" Role="Record Qualifier" val:Core="Model Permissible"/>
                <ItemRef ItemOID="IT.AG.AGUSCHFL" OrderNumber="56" Mandatory="No" Role="Record Qualifier" val:Core="SEND Only"/>
                <ItemRef ItemOID="IT.AG.AGRSTIND" OrderNumber="57" Mandatory="No" Role="Record Qualifier" val:Core="SEND Only"/>
                <ItemRef ItemOID="IT.AG.AGRSTMOD" OrderNumber="58" Mandatory="No" Role="Record Qualifier" val:Core="SEND Only"/>
                <ItemRef ItemOID="IT.AG.VISITNUM" OrderNumber="59" Mandatory="No" Role="Timing" val:Core="Expected"/>
                <ItemRef ItemOID="IT.AG.VISIT" OrderNumber="60" Mandatory="No" Role="Timing" val:Core="Permissible"/>
                <ItemRef ItemOID="IT.AG.VISITDY" OrderNumber="61" Mandatory="No" Role="Timing" val:Core="Permissible"/>
                <ItemRef ItemOID="IT.AG.TAETORD" OrderNumber="62" Mandatory="No" Role="Timing" val:Core="Permissible"/>
                <ItemRef ItemOID="IT.AG.EPOCH" OrderNumber="63" Mandatory="No" Role="Timing" val:Core="Permissible"/>
                <ItemRef ItemOID="IT.AG.RPHASE" OrderNumber="64" Mandatory="No" Role="Timing" val:Core="SEND Only"/>
                <ItemRef ItemOID="IT.AG.RPPLDY" OrderNumber="65" Mandatory="No" Role="Timing" val:Core="SEND Only"/>
                <ItemRef ItemOID="IT.AG.RPPLSTDY" OrderNumber="66" Mandatory="No" Role="Timing" val:Core="SEND Only"/>
                <ItemRef ItemOID="IT.AG.RPPLENDY" OrderNumber="67" Mandatory="No" Role="Timing" val:Core="SEND Only"/>
                <ItemRef ItemOID="IT.AG.AGDTC" OrderNumber="68" Mandatory="No" Role="Timing" val:Core="Model Permissible"/>
                <ItemRef ItemOID="IT.AG.AGSTDTC" OrderNumber="69" Mandatory="No" KeySequence="4" Role="Timing" val:Core="Permissible"/>
                <ItemRef ItemOID="IT.AG.AGENDTC" OrderNumber="70" Mandatory="No" Role="Timing" val:Core="Permissible"/>
                <ItemRef ItemOID="IT.AG.AGDY" OrderNumber="71" Mandatory="No" Role="Timing" val:Core="Model Permissible"/>
                <ItemRef ItemOID="IT.AG.AGSTDY" OrderNumber="72" Mandatory="No" Role="Timing" val:Core="Permissible"/>
                <ItemRef ItemOID="IT.AG.AGENDY" OrderNumber="73" Mandatory="No" Role="Timing" val:Core="Permissible"/>
                <ItemRef ItemOID="IT.AG.AGNOMDY" OrderNumber="74" Mandatory="No" Role="Timing" val:Core="SEND Only"/>
                <ItemRef ItemOID="IT.AG.AGNOMLBL" OrderNumber="75" Mandatory="No" Role="Timing" val:Core="SEND Only"/>
                <ItemRef ItemOID="IT.AG.AGRPDY" OrderNumber="76" Mandatory="No" Role="Timing" val:Core="SEND Only"/>
                <ItemRef ItemOID="IT.AG.AGRPSTDY" OrderNumber="77" Mandatory="No" Role="Timing" val:Core="SEND Only"/>
                <ItemRef ItemOID="IT.AG.AGRPENDY" OrderNumber="78" Mandatory="No" Role="Timing" val:Core="SEND Only"/>
                <ItemRef ItemOID="IT.AG.AGXDY" OrderNumber="79" Mandatory="No" Role="Timing" val:Core="Model Permissible"/>
                <ItemRef ItemOID="IT.AG.AGXSTDY" OrderNumber="80" Mandatory="No" Role="Timing" val:Core="Model Permissible"/>
                <ItemRef ItemOID="IT.AG.AGXENDY" OrderNumber="81" Mandatory="No" Role="Timing" val:Core="Model Permissible"/>
                <ItemRef ItemOID="IT.AG.AGCHDY" OrderNumber="82" Mandatory="No" Role="Timing" val:Core="Model Permissible"/>
                <ItemRef ItemOID="IT.AG.AGCHSTDY" OrderNumber="83" Mandatory="No" Role="Timing" val:Core="Model Permissible"/>
                <ItemRef ItemOID="IT.AG.AGCHENDY" OrderNumber="84" Mandatory="No" Role="Timing" val:Core="Model Permissible"/>
                <ItemRef ItemOID="IT.AG.AGDUR" OrderNumber="85" Mandatory="No" Role="Timing" val:Core="Permissible"/>
                <ItemRef ItemOID="IT.AG.AGTPT" OrderNumber="86" Mandatory="No" Role="Timing" val:Core="Model Permissible"/>
                <ItemRef ItemOID="IT.AG.AGTPTNUM" OrderNumber="87" Mandatory="No" Role="Timing" val:Core="Model Permissible"/>
                <ItemRef ItemOID="IT.AG.AGELTM" OrderNumber="88" Mandatory="No" Role="Timing" val:Core="Model Permissible"/>
                <ItemRef ItemOID="IT.AG.AGTPTREF" OrderNumber="89" Mandatory="No" Role="Timing" val:Core="Model Permissible"/>
                <ItemRef ItemOID="IT.AG.AGRFTDTC" OrderNumber="90" Mandatory="No" Role="Timing" val:Core="Model Permissible"/>
                <ItemRef ItemOID="IT.AG.AGSTRF" OrderNumber="91" Mandatory="No" Role="Timing" val:Core="Permissible"/>
                <ItemRef ItemOID="IT.AG.AGENRF" OrderNumber="92" Mandatory="No" Role="Timing" val:Core="Permissible"/>
                <ItemRef ItemOID="IT.AG.AGEVLINT" OrderNumber="93" Mandatory="No" Role="Timing" val:Core="Model Permissible"/>
                <ItemRef ItemOID="IT.AG.AGEVINTX" OrderNumber="94" Mandatory="No" Role="Timing" val:Core="Model Permissible"/>
                <ItemRef ItemOID="IT.AG.AGSTRTPT" OrderNumber="95" Mandatory="No" Role="Timing" val:Core="Permissible"/>
                <ItemRef ItemOID="IT.AG.AGSTTPT" OrderNumber="96" Mandatory="No" Role="Timing" val:Core="Permissible"/>
                <ItemRef ItemOID="IT.AG.AGENRTPT" OrderNumber="97" Mandatory="No" Role="Timing" val:Core="Permissible"/>
                <ItemRef ItemOID="IT.AG.AGENTPT" OrderNumber="98" Mandatory="No" Role="Timing" val:Core="Permissible"/>
                <ItemRef ItemOID="IT.AG.MIDS" OrderNumber="99" Mandatory="No" Role="Timing" val:Core="Model Permissible"/>
                <ItemRef ItemOID="IT.AG.RELMIDS" OrderNumber="100" Mandatory="No" Role="Timing" val:Core="Model Permissible"/>
                <ItemRef ItemOID="IT.AG.MIDSDTC" OrderNumber="101" Mandatory="No" Role="Timing" val:Core="Model Permissible"/>
                <ItemRef ItemOID="IT.AG.AGSTINT" OrderNumber="102" Mandatory="No" Role="Timing" val:Core="Model Permissible"/>
                <ItemRef ItemOID="IT.AG.AGENINT" OrderNumber="103" Mandatory="No" Role="Timing" val:Core="Model Permissible"/>
                <ItemRef ItemOID="IT.AG.AGDETECT" OrderNumber="104" Mandatory="No" Role="Timing" val:Core="SEND Only"/>
                <ItemRef ItemOID="IT.AG.AGPTFL" OrderNumber="105" Mandatory="No" Role="Timing" val:Core="Prohibited"/>
                <ItemRef ItemOID="IT.AG.AGPDUR" OrderNumber="106" Mandatory="No" Role="Timing" val:Core="Prohibited"/>
                <def:leaf ID="Location.AG" xlink:href="ag.xpt">
                    <def:title>ag.xpt</def:title>
                </def:leaf>
                <val:ValidationRuleRef RuleID="CT2001" Active="Yes"/>
                <val:ValidationRuleRef RuleID="CT2002" Active="Yes"/>
                <val:ValidationRuleRef RuleID="CT2003" Active="Yes"/>
                <val:ValidationRuleRef RuleID="CT2004" Active="Yes"/>
                <val:ValidationRuleRef RuleID="CT2005" Active="Yes"/>
                <val:ValidationRuleRef RuleID="CT2006" Active="Yes"/>
                <val:ValidationRuleRef RuleID="SD0001" Active="Yes"/>
                <val:ValidationRuleRef RuleID="SD0002" Active="Yes"/>
                <val:ValidationRuleRef RuleID="SD0003" Active="Yes"/>
                <val:ValidationRuleRef RuleID="SD0004" Active="Yes"/>
                <val:ValidationRuleRef RuleID="SD0005" Active="Yes"/>
                <val:ValidationRuleRef RuleID="SD0012" Active="Yes"/>
                <val:ValidationRuleRef RuleID="SD0013" Active="Yes"/>
                <val:ValidationRuleRef RuleID="SD0014" Active="Yes"/>
                <val:ValidationRuleRef RuleID="SD0015" Active="Yes"/>
                <val:ValidationRuleRef RuleID="SD0022" Active="Yes"/>
                <val:ValidationRuleRef RuleID="SD0023" Active="Yes"/>
                <val:ValidationRuleRef RuleID="SD0031" Active="Yes"/>
                <val:ValidationRuleRef RuleID="SD0032" Active="Yes"/>
                <val:ValidationRuleRef RuleID="SD0033" Active="Yes"/>
                <val:ValidationRuleRef RuleID="SD0034" Active="Yes"/>
                <val:ValidationRuleRef RuleID="SD0035" Active="Yes"/>
                <val:ValidationRuleRef RuleID="SD0037" Active="Yes"/>
                <val:ValidationRuleRef RuleID="SD0038" Active="Yes"/>
                <val:ValidationRuleRef RuleID="SD0041" Active="Yes"/>
                <val:ValidationRuleRef RuleID="SD0042" Active="Yes"/>
                <val:ValidationRuleRef RuleID="SD0043" Active="Yes"/>
                <val:ValidationRuleRef RuleID="SD0044" Active="Yes"/>
                <val:ValidationRuleRef RuleID="SD0049" Active="Yes"/>
                <val:ValidationRuleRef RuleID="SD0050" Active="Yes"/>
                <val:ValidationRuleRef RuleID="SD0051" Active="Yes"/>
                <val:ValidationRuleRef RuleID="SD0052" Active="Yes"/>
                <val:ValidationRuleRef RuleID="SD0054" Active="Yes"/>
                <val:ValidationRuleRef RuleID="SD0055" Active="Yes"/>
                <val:ValidationRuleRef RuleID="SD0056" Active="Yes"/>
                <val:ValidationRuleRef RuleID="SD0057" Active="Yes"/>
                <val:ValidationRuleRef RuleID="SD0058" Active="Yes"/>
                <val:ValidationRuleRef RuleID="SD0059" Active="Yes"/>
                <val:ValidationRuleRef RuleID="SD0060" Active="Yes"/>
                <val:ValidationRuleRef RuleID="SD0062" Active="Yes"/>
                <val:ValidationRuleRef RuleID="SD0064" Active="Yes"/>
                <val:ValidationRuleRef RuleID="SD0065" Active="Yes"/>
                <val:ValidationRuleRef RuleID="SD1005" Active="Yes"/>
                <val:ValidationRuleRef RuleID="SD1011" Active="Yes"/>
                <val:ValidationRuleRef RuleID="SD1014" Active="Yes"/>
                <val:ValidationRuleRef RuleID="SD1015" Active="Yes"/>
                <val:ValidationRuleRef RuleID="SD1021" Active="Yes"/>
                <val:ValidationRuleRef RuleID="SD1023" Active="Yes"/>
                <val:ValidationRuleRef RuleID="SD1030" Active="Yes"/>
                <val:ValidationRuleRef RuleID="SD1031" Active="Yes"/>
                <val:ValidationRuleRef RuleID="SD1039" Active="Yes"/>
                <val:ValidationRuleRef RuleID="SD1040" Active="Yes"/>
                <val:ValidationRuleRef RuleID="SD1041" Active="Yes"/>
                <val:ValidationRuleRef RuleID="SD1042" Active="Yes"/>
                <val:ValidationRuleRef RuleID="SD1047" Active="Yes"/>
                <val:ValidationRuleRef RuleID="SD1063" Active="Yes"/>
                <val:ValidationRuleRef RuleID="SD1071" Active="Yes"/>
                <val:ValidationRuleRef RuleID="SD1073" Active="Yes"/>
                <val:ValidationRuleRef RuleID="SD1074" Active="Yes"/>
                <val:ValidationRuleRef RuleID="SD1075" Active="Yes"/>
                <val:ValidationRuleRef RuleID="SD1076" Active="Yes"/>
                <val:ValidationRuleRef RuleID="SD1077" Active="Yes"/>
                <val:ValidationRuleRef RuleID="SD1078" Active="Yes"/>
                <val:ValidationRuleRef RuleID="SD1079" Active="Yes"/>
                <val:ValidationRuleRef RuleID="SD1082" Active="Yes"/>
                <val:ValidationRuleRef RuleID="SD1083" Active="Yes"/>
                <val:ValidationRuleRef RuleID="SD1084" Active="Yes"/>
                <val:ValidationRuleRef RuleID="SD1085" Active="Yes"/>
                <val:ValidationRuleRef RuleID="SD1086" Active="Yes"/>
                <val:ValidationRuleRef RuleID="SD1087" Active="Yes"/>
                <val:ValidationRuleRef RuleID="SD1088" Active="Yes"/>
                <val:ValidationRuleRef RuleID="SD1089" Active="Yes"/>
                <val:ValidationRuleRef RuleID="SD1090" Active="Yes"/>
                <val:ValidationRuleRef RuleID="SD1091" Active="Yes"/>
                <val:ValidationRuleRef RuleID="SD1092" Active="Yes"/>
                <val:ValidationRuleRef RuleID="SD1093" Active="Yes"/>
                <val:ValidationRuleRef RuleID="SD1094" Active="Yes"/>
                <val:ValidationRuleRef RuleID="SD1095" Active="Yes"/>
                <val:ValidationRuleRef RuleID="SD1098" Active="Yes"/>
                <val:ValidationRuleRef RuleID="SD1099" Active="Yes"/>
                <val:ValidationRuleRef RuleID="SD1101" Active="Yes"/>
                <val:ValidationRuleRef RuleID="SD1102" Active="Yes"/>
                <val:ValidationRuleRef RuleID="SD1103" Active="Yes"/>
                <val:ValidationRuleRef RuleID="SD1104" Active="Yes"/>
                <val:ValidationRuleRef RuleID="SD1116" Active="Yes"/>
                <val:ValidationRuleRef RuleID="SD1125" Active="Yes"/>
                <val:ValidationRuleRef RuleID="SD1126" Active="Yes"/>
                <val:ValidationRuleRef RuleID="SD1127" Active="Yes"/>
                <val:ValidationRuleRef RuleID="SD1147" Active="Yes"/>
                <val:ValidationRuleRef RuleID="SD1149" Active="Yes"/>
                <val:ValidationRuleRef RuleID="SD1152" Active="Yes"/>
                <val:ValidationRuleRef RuleID="SD1202" Active="Yes"/>
                <val:ValidationRuleRef RuleID="SD1203" Active="Yes"/>
                <val:ValidationRuleRef RuleID="SD1204" Active="Yes"/>
                <val:ValidationRuleRef RuleID="SD1228" Active="Yes"/>
                <val:ValidationRuleRef RuleID="SD1229" Active="Yes"/>
                <val:ValidationRuleRef RuleID="SD1230" Active="Yes"/>
                <val:ValidationRuleRef RuleID="SD1231" Active="Yes"/>
                <val:ValidationRuleRef RuleID="SD1233" Active="Yes"/>
                <val:ValidationRuleRef RuleID="SD1238" Active="Yes"/>
                <val:ValidationRuleRef RuleID="SD1244" Active="Yes"/>
                <val:ValidationRuleRef RuleID="SD1245" Active="Yes"/>
                <val:ValidationRuleRef RuleID="SD1246" Active="Yes"/>
                <val:ValidationRuleRef RuleID="SD1250" Active="Yes"/>
                <val:ValidationRuleRef RuleID="SD1251" Active="Yes"/>
                <val:ValidationRuleRef RuleID="SD1273" Active="Yes"/>
                <val:ValidationRuleRef RuleID="SD1276" Active="Yes"/>
                <val:ValidationRuleRef RuleID="SD1282" Active="Yes"/>
                <val:ValidationRuleRef RuleID="SD1283" Active="Yes"/>
                <val:ValidationRuleRef RuleID="SD1284" Active="Yes"/>
                <val:ValidationRuleRef RuleID="SD1285" Active="Yes"/>
                <val:ValidationRuleRef RuleID="SD1291" Active="Yes"/>
                <val:ValidationRuleRef RuleID="SD1292" Active="Yes"/>
                <val:ValidationRuleRef RuleID="SD1293" Active="Yes"/>
                <val:ValidationRuleRef RuleID="SD1294" Active="Yes"/>
                <val:ValidationRuleRef RuleID="SD1299" Active="Yes"/>
                <val:ValidationRuleRef RuleID="SD1300" Active="Yes"/>
                <val:ValidationRuleRef RuleID="SD1324" Active="Yes"/>
                <val:ValidationRuleRef RuleID="SD1325" Active="Yes"/>
                <val:ValidationRuleRef RuleID="SD1331" Active="Yes"/>
                <val:ValidationRuleRef RuleID="SD1339" Active="Yes"/>
                <val:ValidationRuleRef RuleID="SD1352" Active="Yes"/>
                <val:ValidationRuleRef RuleID="SD1380" Active="Yes"/>
                <val:ValidationRuleRef RuleID="SD1452" Active="Yes"/>
                <val:ValidationRuleRef RuleID="SD2024" Active="Yes"/>
                <val:ValidationRuleRef RuleID="SD2238" Active="Yes"/>
                <val:ValidationRuleRef RuleID="SD2270" Active="Yes"/>
                <val:ValidationRuleRef RuleID="SD2271" Active="Yes"/>
                <val:ValidationRuleRef RuleID="SD2272" Active="Yes"/>
            </ItemGroupDef>
            <ItemGroupDef OID="IG.CM" Name="CM" Repeating="Yes" IsReferenceData="No" Purpose="Tabulation" def:Structure="One record per recorded intervention occurrence or constant-dosing interval per subject" def:Class="INTERVENTIONS" def:ArchiveLocationID="Location.CM">
                <Description>
                    <TranslatedText xml:lang="en">Concomitant/Prior Medications</TranslatedText>
                </Description>
                <ItemRef ItemOID="IT.CM.STUDYID" OrderNumber="1" Mandatory="Yes" KeySequence="1" Role="Identifier" val:Core="Required"/>
                <ItemRef ItemOID="IT.CM.DOMAIN" OrderNumber="2" Mandatory="Yes" Role="Identifier" val:Core="Required"/>
                <ItemRef ItemOID="IT.CM.USUBJID" OrderNumber="3" Mandatory="Yes" KeySequence="2" Role="Identifier" val:Core="Required"/>
                <ItemRef ItemOID="IT.CM.POOLID" OrderNumber="4" Mandatory="No" Role="Identifier" val:Core="Model Permissible"/>
                <ItemRef ItemOID="IT.CM.SPDEVID" OrderNumber="5" Mandatory="No" Role="Identifier" val:Core="Model Permissible"/>
                <ItemRef ItemOID="IT.CM.NHOID" OrderNumber="6" Mandatory="No" Role="Identifier" val:Core="Model Permissible"/>
                <ItemRef ItemOID="IT.CM.FETUSID" OrderNumber="7" Mandatory="No" Role="Identifier" val:Core="SEND Only"/>
                <ItemRef ItemOID="IT.CM.FOCID" OrderNumber="8" Mandatory="No" Role="Identifier" val:Core="Model Permissible"/>
                <ItemRef ItemOID="IT.CM.CMSEQ" OrderNumber="9" Mandatory="Yes" Role="Identifier" val:Core="Required"/>
                <ItemRef ItemOID="IT.CM.CMGRPID" OrderNumber="10" Mandatory="No" Role="Identifier" val:Core="Permissible"/>
                <ItemRef ItemOID="IT.CM.CMREFID" OrderNumber="11" Mandatory="No" Role="Identifier" val:Core="Model Permissible"/>
                <ItemRef ItemOID="IT.CM.CMRECID" OrderNumber="12" Mandatory="No" Role="Identifier" val:Core="Model Permissible"/>
                <ItemRef ItemOID="IT.CM.CMSPID" OrderNumber="13" Mandatory="No" Role="Identifier" val:Core="Permissible"/>
                <ItemRef ItemOID="IT.CM.CMLNKID" OrderNumber="14" Mandatory="No" Role="Identifier" val:Core="Model Permissible"/>
                <ItemRef ItemOID="IT.CM.CMLNKGRP" OrderNumber="15" Mandatory="No" Role="Identifier" val:Core="Model Permissible"/>
                <ItemRef ItemOID="IT.CM.CMTRT" OrderNumber="16" Mandatory="Yes" KeySequence="3" Role="Topic" val:Core="Required"/>
                <ItemRef ItemOID="IT.CM.CMMODIFY" OrderNumber="17" Mandatory="No" Role="Synonym Qualifier" val:Core="Permissible"/>
                <ItemRef ItemOID="IT.CM.CMDECOD" OrderNumber="18" Mandatory="No" Role="Synonym Qualifier" val:Core="Permissible"/>
                <ItemRef ItemOID="IT.CM.CMMOOD" OrderNumber="19" Mandatory="No" Role="Record Qualifier" val:Core="Not Recommended"/>
                <ItemRef ItemOID="IT.CM.CMCAT" OrderNumber="20" Mandatory="No" Role="Grouping Qualifier" val:Core="Permissible"/>
                <ItemRef ItemOID="IT.CM.CMSCAT" OrderNumber="21" Mandatory="No" Role="Grouping Qualifier" val:Core="Permissible"/>
                <ItemRef ItemOID="IT.CM.CMPRESP" OrderNumber="22" Mandatory="No" Role="Variable Qualifier" val:Core="Permissible"/>
                <ItemRef ItemOID="IT.CM.CMOCCUR" OrderNumber="23" Mandatory="No" Role="Record Qualifier" val:Core="Permissible"/>
                <ItemRef ItemOID="IT.CM.CMREASOC" OrderNumber="24" Mandatory="No" Role="Record Qualifier" val:Core="Model Permissible"/>
                <ItemRef ItemOID="IT.CM.CMSTAT" OrderNumber="25" Mandatory="No" Role="Record Qualifier" val:Core="Permissible"/>
                <ItemRef ItemOID="IT.CM.CMREASND" OrderNumber="26" Mandatory="No" Role="Record Qualifier" val:Core="Permissible"/>
                <ItemRef ItemOID="IT.CM.CMCNTMOD" OrderNumber="27" Mandatory="No" Role="Record Qualifier" val:Core="Model Permissible"/>
                <ItemRef ItemOID="IT.CM.CMEPCHGI" OrderNumber="28" Mandatory="No" Role="Record Qualifier" val:Core="Model Permissible"/>
                <ItemRef ItemOID="IT.CM.CMINDC" OrderNumber="29" Mandatory="No" Role="Record Qualifier" val:Core="Permissible"/>
                <ItemRef ItemOID="IT.CM.CMCLAS" OrderNumber="30" Mandatory="No" Role="Variable Qualifier" val:Core="Permissible"/>
                <ItemRef ItemOID="IT.CM.CMCLASCD" OrderNumber="31" Mandatory="No" Role="Variable Qualifier" val:Core="Permissible"/>
                <ItemRef ItemOID="IT.CM.CMDOSE" OrderNumber="32" Mandatory="No" Role="Record Qualifier" val:Core="Permissible"/>
                <ItemRef ItemOID="IT.CM.CMDOSTXT" OrderNumber="33" Mandatory="No" Role="Record Qualifier" val:Core="Permissible"/>
                <ItemRef ItemOID="IT.CM.CMDOSU" OrderNumber="34" Mandatory="No" Role="Variable Qualifier" val:Core="Permissible"/>
                <ItemRef ItemOID="IT.CM.CMTDOSD" OrderNumber="35" Mandatory="No" Role="Record Qualifier" val:Core="Model Permissible"/>
                <ItemRef ItemOID="IT.CM.CMFTDOSD" OrderNumber="36" Mandatory="No" Role="Variable Qualifier" val:Core="Model Permissible"/>
                <ItemRef ItemOID="IT.CM.CMDOSFRM" OrderNumber="37" Mandatory="No" Role="Variable Qualifier" val:Core="Permissible"/>
                <ItemRef ItemOID="IT.CM.CMDOSFRQ" OrderNumber="38" Mandatory="No" Role="Record Qualifier" val:Core="Permissible"/>
                <ItemRef ItemOID="IT.CM.CMDOSTOT" OrderNumber="39" Mandatory="No" Role="Record Qualifier" val:Core="Permissible"/>
                <ItemRef ItemOID="IT.CM.CMDOSRGM" OrderNumber="40" Mandatory="No" Role="Record Qualifier" val:Core="Permissible"/>
                <ItemRef ItemOID="IT.CM.CMROUTE" OrderNumber="41" Mandatory="No" Role="Variable Qualifier" val:Core="Permissible"/>
                <ItemRef ItemOID="IT.CM.CMLOT" OrderNumber="42" Mandatory="No" Role="Record Qualifier" val:Core="Not Recommended"/>
                <ItemRef ItemOID="IT.CM.CMLOC" OrderNumber="43" Mandatory="No" Role="Record Qualifier" val:Core="Model Permissible"/>
                <ItemRef ItemOID="IT.CM.CMMETHOD" OrderNumber="44" Mandatory="No" Role="Record Qualifier" val:Core="Prohibited"/>
                <ItemRef ItemOID="IT.CM.CMLAT" OrderNumber="45" Mandatory="No" Role="Variable Qualifier" val:Core="Model Permissible"/>
                <ItemRef ItemOID="IT.CM.CMDIR" OrderNumber="46" Mandatory="No" Role="Variable Qualifier" val:Core="Model Permissible"/>
                <ItemRef ItemOID="IT.CM.CMPORTOT" OrderNumber="47" Mandatory="No" Role="Variable Qualifier" val:Core="Model Permissible"/>
                <ItemRef ItemOID="IT.CM.CMFAST" OrderNumber="48" Mandatory="No" Role="Record Qualifier" val:Core="Model Permissible"/>
                <ItemRef ItemOID="IT.CM.CMPSTRG" OrderNumber="49" Mandatory="No" Role="Record Qualifier" val:Core="Model Permissible"/>
                <ItemRef ItemOID="IT.CM.CMPSTRGU" OrderNumber="50" Mandatory="No" Role="Variable Qualifier" val:Core="Model Permissible"/>
                <ItemRef ItemOID="IT.CM.CMTRTV" OrderNumber="51" Mandatory="No" Role="Record Qualifier" val:Core="Model Permissible"/>
                <ItemRef ItemOID="IT.CM.CMVAMT" OrderNumber="52" Mandatory="No" Role="Record Qualifier" val:Core="Model Permissible"/>
                <ItemRef ItemOID="IT.CM.CMVAMTU" OrderNumber="53" Mandatory="No" Role="Variable Qualifier" val:Core="Model Permissible"/>
                <ItemRef ItemOID="IT.CM.CMADJ" OrderNumber="54" Mandatory="No" Role="Record Qualifier" val:Core="Permissible"/>
                <ItemRef ItemOID="IT.CM.CMRSDISC" OrderNumber="55" Mandatory="No" Role="Record Qualifier" val:Core="Permissible"/>
                <ItemRef ItemOID="IT.CM.CMUSCHFL" OrderNumber="56" Mandatory="No" Role="Record Qualifier" val:Core="SEND Only"/>
                <ItemRef ItemOID="IT.CM.CMRSTIND" OrderNumber="57" Mandatory="No" Role="Record Qualifier" val:Core="SEND Only"/>
                <ItemRef ItemOID="IT.CM.CMRSTMOD" OrderNumber="58" Mandatory="No" Role="Record Qualifier" val:Core="SEND Only"/>
                <ItemRef ItemOID="IT.CM.VISITNUM" OrderNumber="59" Mandatory="No" Role="Timing" val:Core="Model Permissible"/>
                <ItemRef ItemOID="IT.CM.VISIT" OrderNumber="60" Mandatory="No" Role="Timing" val:Core="Model Permissible"/>
                <ItemRef ItemOID="IT.CM.VISITDY" OrderNumber="61" Mandatory="No" Role="Timing" val:Core="Model Permissible"/>
                <ItemRef ItemOID="IT.CM.TAETORD" OrderNumber="62" Mandatory="No" Role="Timing" val:Core="Permissible"/>
                <ItemRef ItemOID="IT.CM.EPOCH" OrderNumber="63" Mandatory="No" Role="Timing" val:Core="Permissible"/>
                <ItemRef ItemOID="IT.CM.RPHASE" OrderNumber="64" Mandatory="No" Role="Timing" val:Core="SEND Only"/>
                <ItemRef ItemOID="IT.CM.RPPLDY" OrderNumber="65" Mandatory="No" Role="Timing" val:Core="SEND Only"/>
                <ItemRef ItemOID="IT.CM.RPPLSTDY" OrderNumber="66" Mandatory="No" Role="Timing" val:Core="SEND Only"/>
                <ItemRef ItemOID="IT.CM.RPPLENDY" OrderNumber="67" Mandatory="No" Role="Timing" val:Core="SEND Only"/>
                <ItemRef ItemOID="IT.CM.CMDTC" OrderNumber="68" Mandatory="No" Role="Timing" val:Core="Model Permissible"/>
                <ItemRef ItemOID="IT.CM.CMSTDTC" OrderNumber="69" Mandatory="No" KeySequence="4" Role="Timing" val:Core="Permissible"/>
                <ItemRef ItemOID="IT.CM.CMENDTC" OrderNumber="70" Mandatory="No" Role="Timing" val:Core="Permissible"/>
                <ItemRef ItemOID="IT.CM.CMDY" OrderNumber="71" Mandatory="No" Role="Timing" val:Core="Model Permissible"/>
                <ItemRef ItemOID="IT.CM.CMSTDY" OrderNumber="72" Mandatory="No" Role="Timing" val:Core="Permissible"/>
                <ItemRef ItemOID="IT.CM.CMENDY" OrderNumber="73" Mandatory="No" Role="Timing" val:Core="Permissible"/>
                <ItemRef ItemOID="IT.CM.CMNOMDY" OrderNumber="74" Mandatory="No" Role="Timing" val:Core="SEND Only"/>
                <ItemRef ItemOID="IT.CM.CMNOMLBL" OrderNumber="75" Mandatory="No" Role="Timing" val:Core="SEND Only"/>
                <ItemRef ItemOID="IT.CM.CMRPDY" OrderNumber="76" Mandatory="No" Role="Timing" val:Core="SEND Only"/>
                <ItemRef ItemOID="IT.CM.CMRPSTDY" OrderNumber="77" Mandatory="No" Role="Timing" val:Core="SEND Only"/>
                <ItemRef ItemOID="IT.CM.CMRPENDY" OrderNumber="78" Mandatory="No" Role="Timing" val:Core="SEND Only"/>
                <ItemRef ItemOID="IT.CM.CMXDY" OrderNumber="79" Mandatory="No" Role="Timing" val:Core="Model Permissible"/>
                <ItemRef ItemOID="IT.CM.CMXSTDY" OrderNumber="80" Mandatory="No" Role="Timing" val:Core="Model Permissible"/>
                <ItemRef ItemOID="IT.CM.CMXENDY" OrderNumber="81" Mandatory="No" Role="Timing" val:Core="Model Permissible"/>
                <ItemRef ItemOID="IT.CM.CMCHDY" OrderNumber="82" Mandatory="No" Role="Timing" val:Core="Model Permissible"/>
                <ItemRef ItemOID="IT.CM.CMCHSTDY" OrderNumber="83" Mandatory="No" Role="Timing" val:Core="Model Permissible"/>
                <ItemRef ItemOID="IT.CM.CMCHENDY" OrderNumber="84" Mandatory="No" Role="Timing" val:Core="Model Permissible"/>
                <ItemRef ItemOID="IT.CM.CMDUR" OrderNumber="85" Mandatory="No" Role="Timing" val:Core="Permissible"/>
                <ItemRef ItemOID="IT.CM.CMTPT" OrderNumber="86" Mandatory="No" Role="Timing" val:Core="Model Permissible"/>
                <ItemRef ItemOID="IT.CM.CMTPTNUM" OrderNumber="87" Mandatory="No" Role="Timing" val:Core="Model Permissible"/>
                <ItemRef ItemOID="IT.CM.CMELTM" OrderNumber="88" Mandatory="No" Role="Timing" val:Core="Model Permissible"/>
                <ItemRef ItemOID="IT.CM.CMTPTREF" OrderNumber="89" Mandatory="No" Role="Timing" val:Core="Model Permissible"/>
                <ItemRef ItemOID="IT.CM.CMRFTDTC" OrderNumber="90" Mandatory="No" Role="Timing" val:Core="Model Permissible"/>
                <ItemRef ItemOID="IT.CM.CMSTRF" OrderNumber="91" Mandatory="No" Role="Timing" val:Core="Permissible"/>
                <ItemRef ItemOID="IT.CM.CMENRF" OrderNumber="92" Mandatory="No" Role="Timing" val:Core="Permissible"/>
                <ItemRef ItemOID="IT.CM.CMEVLINT" OrderNumber="93" Mandatory="No" Role="Timing" val:Core="Model Permissible"/>
                <ItemRef ItemOID="IT.CM.CMEVINTX" OrderNumber="94" Mandatory="No" Role="Timing" val:Core="Model Permissible"/>
                <ItemRef ItemOID="IT.CM.CMSTRTPT" OrderNumber="95" Mandatory="No" Role="Timing" val:Core="Permissible"/>
                <ItemRef ItemOID="IT.CM.CMSTTPT" OrderNumber="96" Mandatory="No" Role="Timing" val:Core="Permissible"/>
                <ItemRef ItemOID="IT.CM.CMENRTPT" OrderNumber="97" Mandatory="No" Role="Timing" val:Core="Permissible"/>
                <ItemRef ItemOID="IT.CM.CMENTPT" OrderNumber="98" Mandatory="No" Role="Timing" val:Core="Permissible"/>
                <ItemRef ItemOID="IT.CM.MIDS" OrderNumber="99" Mandatory="No" Role="Timing" val:Core="Model Permissible"/>
                <ItemRef ItemOID="IT.CM.RELMIDS" OrderNumber="100" Mandatory="No" Role="Timing" val:Core="Model Permissible"/>
                <ItemRef ItemOID="IT.CM.MIDSDTC" OrderNumber="101" Mandatory="No" Role="Timing" val:Core="Model Permissible"/>
                <ItemRef ItemOID="IT.CM.CMSTINT" OrderNumber="102" Mandatory="No" Role="Timing" val:Core="Model Permissible"/>
                <ItemRef ItemOID="IT.CM.CMENINT" OrderNumber="103" Mandatory="No" Role="Timing" val:Core="Model Permissible"/>
                <ItemRef ItemOID="IT.CM.CMDETECT" OrderNumber="104" Mandatory="No" Role="Timing" val:Core="SEND Only"/>
                <ItemRef ItemOID="IT.CM.CMPTFL" OrderNumber="105" Mandatory="No" Role="Timing" val:Core="Prohibited"/>
                <ItemRef ItemOID="IT.CM.CMPDUR" OrderNumber="106" Mandatory="No" Role="Timing" val:Core="Prohibited"/>
                <def:leaf ID="Location.CM" xlink:href="cm.xpt">
                    <def:title>cm.xpt</def:title>
                </def:leaf>
                <val:ValidationRuleRef RuleID="CT2001" Active="Yes"/>
                <val:ValidationRuleRef RuleID="CT2002" Active="Yes"/>
                <val:ValidationRuleRef RuleID="CT2003" Active="Yes"/>
                <val:ValidationRuleRef RuleID="CT2004" Active="Yes"/>
                <val:ValidationRuleRef RuleID="CT2005" Active="Yes"/>
                <val:ValidationRuleRef RuleID="CT2006" Active="Yes"/>
                <val:ValidationRuleRef RuleID="SD0001" Active="Yes"/>
                <val:ValidationRuleRef RuleID="SD0002" Active="Yes"/>
                <val:ValidationRuleRef RuleID="SD0003" Active="Yes"/>
                <val:ValidationRuleRef RuleID="SD0004" Active="Yes"/>
                <val:ValidationRuleRef RuleID="SD0005" Active="Yes"/>
                <val:ValidationRuleRef RuleID="SD0012" Active="Yes"/>
                <val:ValidationRuleRef RuleID="SD0013" Active="Yes"/>
                <val:ValidationRuleRef RuleID="SD0014" Active="Yes"/>
                <val:ValidationRuleRef RuleID="SD0015" Active="Yes"/>
                <val:ValidationRuleRef RuleID="SD0021" Active="Yes"/>
                <val:ValidationRuleRef RuleID="SD0022" Active="Yes"/>
                <val:ValidationRuleRef RuleID="SD0023" Active="Yes"/>
                <val:ValidationRuleRef RuleID="SD0031" Active="Yes"/>
                <val:ValidationRuleRef RuleID="SD0032" Active="Yes"/>
                <val:ValidationRuleRef RuleID="SD0033" Active="Yes"/>
                <val:ValidationRuleRef RuleID="SD0034" Active="Yes"/>
                <val:ValidationRuleRef RuleID="SD0035" Active="Yes"/>
                <val:ValidationRuleRef RuleID="SD0037" Active="Yes"/>
                <val:ValidationRuleRef RuleID="SD0038" Active="Yes"/>
                <val:ValidationRuleRef RuleID="SD0041" Active="Yes"/>
                <val:ValidationRuleRef RuleID="SD0042" Active="Yes"/>
                <val:ValidationRuleRef RuleID="SD0043" Active="Yes"/>
                <val:ValidationRuleRef RuleID="SD0044" Active="Yes"/>
                <val:ValidationRuleRef RuleID="SD0049" Active="Yes"/>
                <val:ValidationRuleRef RuleID="SD0050" Active="Yes"/>
                <val:ValidationRuleRef RuleID="SD0051" Active="Yes"/>
                <val:ValidationRuleRef RuleID="SD0052" Active="Yes"/>
                <val:ValidationRuleRef RuleID="SD0054" Active="Yes"/>
                <val:ValidationRuleRef RuleID="SD0055" Active="Yes"/>
                <val:ValidationRuleRef RuleID="SD0056" Active="Yes"/>
                <val:ValidationRuleRef RuleID="SD0057" Active="Yes"/>
                <val:ValidationRuleRef RuleID="SD0058" Active="Yes"/>
                <val:ValidationRuleRef RuleID="SD0059" Active="Yes"/>
                <val:ValidationRuleRef RuleID="SD0060" Active="Yes"/>
                <val:ValidationRuleRef RuleID="SD0062" Active="Yes"/>
                <val:ValidationRuleRef RuleID="SD0064" Active="Yes"/>
                <val:ValidationRuleRef RuleID="SD0065" Active="Yes"/>
                <val:ValidationRuleRef RuleID="SD1005" Active="Yes"/>
                <val:ValidationRuleRef RuleID="SD1011" Active="Yes"/>
                <val:ValidationRuleRef RuleID="SD1014" Active="Yes"/>
                <val:ValidationRuleRef RuleID="SD1015" Active="Yes"/>
                <val:ValidationRuleRef RuleID="SD1021" Active="Yes"/>
                <val:ValidationRuleRef RuleID="SD1023" Active="Yes"/>
                <val:ValidationRuleRef RuleID="SD1030" Active="Yes"/>
                <val:ValidationRuleRef RuleID="SD1031" Active="Yes"/>
                <val:ValidationRuleRef RuleID="SD1039" Active="Yes"/>
                <val:ValidationRuleRef RuleID="SD1040" Active="Yes"/>
                <val:ValidationRuleRef RuleID="SD1041" Active="Yes"/>
                <val:ValidationRuleRef RuleID="SD1042" Active="Yes"/>
                <val:ValidationRuleRef RuleID="SD1047" Active="Yes"/>
                <val:ValidationRuleRef RuleID="SD1063" Active="Yes"/>
                <val:ValidationRuleRef RuleID="SD1071" Active="Yes"/>
                <val:ValidationRuleRef RuleID="SD1073" Active="Yes"/>
                <val:ValidationRuleRef RuleID="SD1074" Active="Yes"/>
                <val:ValidationRuleRef RuleID="SD1075" Active="Yes"/>
                <val:ValidationRuleRef RuleID="SD1076" Active="Yes"/>
                <val:ValidationRuleRef RuleID="SD1077" Active="Yes"/>
                <val:ValidationRuleRef RuleID="SD1078" Active="Yes"/>
                <val:ValidationRuleRef RuleID="SD1079" Active="Yes"/>
                <val:ValidationRuleRef RuleID="SD1082" Active="Yes"/>
                <val:ValidationRuleRef RuleID="SD1083" Active="Yes"/>
                <val:ValidationRuleRef RuleID="SD1084" Active="Yes"/>
                <val:ValidationRuleRef RuleID="SD1085" Active="Yes"/>
                <val:ValidationRuleRef RuleID="SD1086" Active="Yes"/>
                <val:ValidationRuleRef RuleID="SD1087" Active="Yes"/>
                <val:ValidationRuleRef RuleID="SD1088" Active="Yes"/>
                <val:ValidationRuleRef RuleID="SD1089" Active="Yes"/>
                <val:ValidationRuleRef RuleID="SD1090" Active="Yes"/>
                <val:ValidationRuleRef RuleID="SD1091" Active="Yes"/>
                <val:ValidationRuleRef RuleID="SD1092" Active="Yes"/>
                <val:ValidationRuleRef RuleID="SD1093" Active="Yes"/>
                <val:ValidationRuleRef RuleID="SD1094" Active="Yes"/>
                <val:ValidationRuleRef RuleID="SD1095" Active="Yes"/>
                <val:ValidationRuleRef RuleID="SD1098" Active="Yes"/>
                <val:ValidationRuleRef RuleID="SD1099" Active="Yes"/>
                <val:ValidationRuleRef RuleID="SD1101" Active="Yes"/>
                <val:ValidationRuleRef RuleID="SD1102" Active="Yes"/>
                <val:ValidationRuleRef RuleID="SD1103" Active="Yes"/>
                <val:ValidationRuleRef RuleID="SD1104" Active="Yes"/>
                <val:ValidationRuleRef RuleID="SD1116" Active="Yes"/>
                <val:ValidationRuleRef RuleID="SD1125" Active="Yes"/>
                <val:ValidationRuleRef RuleID="SD1126" Active="Yes"/>
                <val:ValidationRuleRef RuleID="SD1127" Active="Yes"/>
                <val:ValidationRuleRef RuleID="SD1147" Active="Yes"/>
                <val:ValidationRuleRef RuleID="SD1149" Active="Yes"/>
                <val:ValidationRuleRef RuleID="SD1152" Active="Yes"/>
                <val:ValidationRuleRef RuleID="SD1202" Active="Yes"/>
                <val:ValidationRuleRef RuleID="SD1203" Active="Yes"/>
                <val:ValidationRuleRef RuleID="SD1204" Active="Yes"/>
                <val:ValidationRuleRef RuleID="SD1228" Active="Yes"/>
                <val:ValidationRuleRef RuleID="SD1229" Active="Yes"/>
                <val:ValidationRuleRef RuleID="SD1230" Active="Yes"/>
                <val:ValidationRuleRef RuleID="SD1231" Active="Yes"/>
                <val:ValidationRuleRef RuleID="SD1233" Active="Yes"/>
                <val:ValidationRuleRef RuleID="SD1238" Active="Yes"/>
                <val:ValidationRuleRef RuleID="SD1244" Active="Yes"/>
                <val:ValidationRuleRef RuleID="SD1245" Active="Yes"/>
                <val:ValidationRuleRef RuleID="SD1246" Active="Yes"/>
                <val:ValidationRuleRef RuleID="SD1250" Active="Yes"/>
                <val:ValidationRuleRef RuleID="SD1251" Active="Yes"/>
                <val:ValidationRuleRef RuleID="SD1273" Active="Yes"/>
                <val:ValidationRuleRef RuleID="SD1276" Active="Yes"/>
                <val:ValidationRuleRef RuleID="SD1282" Active="Yes"/>
                <val:ValidationRuleRef RuleID="SD1283" Active="Yes"/>
                <val:ValidationRuleRef RuleID="SD1284" Active="Yes"/>
                <val:ValidationRuleRef RuleID="SD1285" Active="Yes"/>
                <val:ValidationRuleRef RuleID="SD1291" Active="Yes"/>
                <val:ValidationRuleRef RuleID="SD1292" Active="Yes"/>
                <val:ValidationRuleRef RuleID="SD1293" Active="Yes"/>
                <val:ValidationRuleRef RuleID="SD1294" Active="Yes"/>
                <val:ValidationRuleRef RuleID="SD1299" Active="Yes"/>
                <val:ValidationRuleRef RuleID="SD1300" Active="Yes"/>
                <val:ValidationRuleRef RuleID="SD1324" Active="Yes"/>
                <val:ValidationRuleRef RuleID="SD1325" Active="Yes"/>
                <val:ValidationRuleRef RuleID="SD1331" Active="Yes"/>
                <val:ValidationRuleRef RuleID="SD1339" Active="Yes"/>
                <val:ValidationRuleRef RuleID="SD1344" Active="Yes"/>
                <val:ValidationRuleRef RuleID="SD1345" Active="Yes"/>
                <val:ValidationRuleRef RuleID="SD1346" Active="Yes"/>
                <val:ValidationRuleRef RuleID="SD1380" Active="Yes"/>
                <val:ValidationRuleRef RuleID="SD1452" Active="Yes"/>
                <val:ValidationRuleRef RuleID="SD2024" Active="Yes"/>
                <val:ValidationRuleRef RuleID="SD2238" Active="Yes"/>
                <val:ValidationRuleRef RuleID="SD2270" Active="Yes"/>
                <val:ValidationRuleRef RuleID="SD2271" Active="Yes"/>
                <val:ValidationRuleRef RuleID="SD2272" Active="Yes"/>
            </ItemGroupDef>
            <ItemGroupDef OID="IG.DX" Name="DX" Repeating="Yes" IsReferenceData="No" Purpose="Tabulation" def:Structure="One record per recorded intervention occurrence or constant treatment interval per subject" def:Class="INTERVENTIONS" def:ArchiveLocationID="Location.DX">
                <Description>
                    <TranslatedText xml:lang="en">Device Exposure</TranslatedText>
                </Description>
                <ItemRef ItemOID="IT.DX.STUDYID" OrderNumber="1" Mandatory="Yes" KeySequence="1" Role="Identifier" val:Core="Required"/>
                <ItemRef ItemOID="IT.DX.DOMAIN" OrderNumber="2" Mandatory="Yes" Role="Identifier" val:Core="Required"/>
                <ItemRef ItemOID="IT.DX.USUBJID" OrderNumber="3" Mandatory="Yes" KeySequence="2" Role="Identifier" val:Core="Required"/>
                <ItemRef ItemOID="IT.DX.POOLID" OrderNumber="4" Mandatory="No" Role="Identifier" val:Core="Model Permissible"/>
                <ItemRef ItemOID="IT.DX.SPDEVID" OrderNumber="5" Mandatory="Yes" KeySequence="3" Role="Identifier" val:Core="Required"/>
                <ItemRef ItemOID="IT.DX.NHOID" OrderNumber="6" Mandatory="No" Role="Identifier" val:Core="Model Permissible"/>
                <ItemRef ItemOID="IT.DX.FETUSID" OrderNumber="7" Mandatory="No" Role="Identifier" val:Core="SEND Only"/>
                <ItemRef ItemOID="IT.DX.FOCID" OrderNumber="8" Mandatory="No" Role="Identifier" val:Core="Model Permissible"/>
                <ItemRef ItemOID="IT.DX.DXSEQ" OrderNumber="9" Mandatory="Yes" Role="Identifier" val:Core="Required"/>
                <ItemRef ItemOID="IT.DX.DXGRPID" OrderNumber="10" Mandatory="No" Role="Identifier" val:Core="Permissible"/>
                <ItemRef ItemOID="IT.DX.DXREFID" OrderNumber="11" Mandatory="No" Role="Identifier" val:Core="Model Permissible"/>
                <ItemRef ItemOID="IT.DX.DXRECID" OrderNumber="12" Mandatory="No" Role="Identifier" val:Core="Model Permissible"/>
                <ItemRef ItemOID="IT.DX.DXSPID" OrderNumber="13" Mandatory="No" Role="Identifier" val:Core="Permissible"/>
                <ItemRef ItemOID="IT.DX.DXLNKID" OrderNumber="14" Mandatory="No" Role="Identifier" val:Core="Model Permissible"/>
                <ItemRef ItemOID="IT.DX.DXLNKGRP" OrderNumber="15" Mandatory="No" Role="Identifier" val:Core="Model Permissible"/>
                <ItemRef ItemOID="IT.DX.DXTRT" OrderNumber="16" Mandatory="Yes" KeySequence="4" Role="Topic" val:Core="Required"/>
                <ItemRef ItemOID="IT.DX.DXMODIFY" OrderNumber="17" Mandatory="No" Role="Synonym Qualifier" val:Core="Model Permissible"/>
                <ItemRef ItemOID="IT.DX.DXDECOD" OrderNumber="18" Mandatory="No" Role="Synonym Qualifier" val:Core="Model Permissible"/>
                <ItemRef ItemOID="IT.DX.DXMOOD" OrderNumber="19" Mandatory="No" Role="Record Qualifier" val:Core="Model Permissible"/>
                <ItemRef ItemOID="IT.DX.DXCAT" OrderNumber="20" Mandatory="No" Role="Grouping Qualifier" val:Core="Permissible"/>
                <ItemRef ItemOID="IT.DX.DXSCAT" OrderNumber="21" Mandatory="No" Role="Grouping Qualifier" val:Core="Permissible"/>
                <ItemRef ItemOID="IT.DX.DXPRESP" OrderNumber="22" Mandatory="No" Role="Variable Qualifier" val:Core="Model Permissible"/>
                <ItemRef ItemOID="IT.DX.DXOCCUR" OrderNumber="23" Mandatory="No" Role="Record Qualifier" val:Core="Model Permissible"/>
                <ItemRef ItemOID="IT.DX.DXREASOC" OrderNumber="24" Mandatory="No" Role="Record Qualifier" val:Core="Model Permissible"/>
                <ItemRef ItemOID="IT.DX.DXSTAT" OrderNumber="25" Mandatory="No" Role="Record Qualifier" val:Core="Model Permissible"/>
                <ItemRef ItemOID="IT.DX.DXREASND" OrderNumber="26" Mandatory="No" Role="Record Qualifier" val:Core="Model Permissible"/>
                <ItemRef ItemOID="IT.DX.DXCNTMOD" OrderNumber="27" Mandatory="No" Role="Record Qualifier" val:Core="Model Permissible"/>
                <ItemRef ItemOID="IT.DX.DXEPCHGI" OrderNumber="28" Mandatory="No" Role="Record Qualifier" val:Core="Model Permissible"/>
                <ItemRef ItemOID="IT.DX.DXINDC" OrderNumber="29" Mandatory="No" Role="Record Qualifier" val:Core="Model Permissible"/>
                <ItemRef ItemOID="IT.DX.DXCLAS" OrderNumber="30" Mandatory="No" Role="Variable Qualifier" val:Core="Model Permissible"/>
                <ItemRef ItemOID="IT.DX.DXCLASCD" OrderNumber="31" Mandatory="No" Role="Variable Qualifier" val:Core="Model Permissible"/>
                <ItemRef ItemOID="IT.DX.DXDOSE" OrderNumber="32" Mandatory="No" Role="Record Qualifier" val:Core="Permissible"/>
                <ItemRef ItemOID="IT.DX.DXDOSTXT" OrderNumber="33" Mandatory="No" Role="Record Qualifier" val:Core="Permissible"/>
                <ItemRef ItemOID="IT.DX.DXDOSU" OrderNumber="34" Mandatory="No" Role="Variable Qualifier" val:Core="Permissible"/>
                <ItemRef ItemOID="IT.DX.DXTDOSD" OrderNumber="35" Mandatory="No" Role="Record Qualifier" val:Core="Model Permissible"/>
                <ItemRef ItemOID="IT.DX.DXFTDOSD" OrderNumber="36" Mandatory="No" Role="Variable Qualifier" val:Core="Model Permissible"/>
                <ItemRef ItemOID="IT.DX.DXDOSFRM" OrderNumber="37" Mandatory="No" Role="Variable Qualifier" val:Core="Model Permissible"/>
                <ItemRef ItemOID="IT.DX.DXDOSFRQ" OrderNumber="38" Mandatory="No" Role="Record Qualifier" val:Core="Model Permissible"/>
                <ItemRef ItemOID="IT.DX.DXDOSTOT" OrderNumber="39" Mandatory="No" Role="Record Qualifier" val:Core="Permissible"/>
                <ItemRef ItemOID="IT.DX.DXDOSRGM" OrderNumber="40" Mandatory="No" Role="Record Qualifier" val:Core="Permissible"/>
                <ItemRef ItemOID="IT.DX.DXROUTE" OrderNumber="41" Mandatory="No" Role="Record Qualifier" val:Core="Permissible"/>
                <ItemRef ItemOID="IT.DX.DXLOT" OrderNumber="42" Mandatory="No" Role="Record Qualifier" val:Core="Model Permissible"/>
                <ItemRef ItemOID="IT.DX.DXLOC" OrderNumber="43" Mandatory="No" Role="Record Qualifier" val:Core="Permissible"/>
                <ItemRef ItemOID="IT.DX.DXLAT" OrderNumber="44" Mandatory="No" Role="Variable Qualifier" val:Core="Permissible"/>
                <ItemRef ItemOID="IT.DX.DXDIR" OrderNumber="45" Mandatory="No" Role="Variable Qualifier" val:Core="Model Permissible"/>
                <ItemRef ItemOID="IT.DX.DXPORTOT" OrderNumber="46" Mandatory="No" Role="Variable Qualifier" val:Core="Model Permissible"/>
                <ItemRef ItemOID="IT.DX.DXFAST" OrderNumber="47" Mandatory="No" Role="Record Qualifier" val:Core="Model Permissible"/>
                <ItemRef ItemOID="IT.DX.DXPSTRG" OrderNumber="48" Mandatory="No" Role="Record Qualifier" val:Core="Model Permissible"/>
                <ItemRef ItemOID="IT.DX.DXPSTRGU" OrderNumber="49" Mandatory="No" Role="Variable Qualifier" val:Core="Model Permissible"/>
                <ItemRef ItemOID="IT.DX.DXTRTV" OrderNumber="50" Mandatory="No" Role="Record Qualifier" val:Core="Model Permissible"/>
                <ItemRef ItemOID="IT.DX.DXVAMT" OrderNumber="51" Mandatory="No" Role="Record Qualifier" val:Core="Model Permissible"/>
                <ItemRef ItemOID="IT.DX.DXVAMTU" OrderNumber="52" Mandatory="No" Role="Variable Qualifier" val:Core="Model Permissible"/>
                <ItemRef ItemOID="IT.DX.DXADJ" OrderNumber="53" Mandatory="No" Role="Record Qualifier" val:Core="Permissible"/>
                <ItemRef ItemOID="IT.DX.DXRSDISC" OrderNumber="54" Mandatory="No" Role="Record Qualifier" val:Core="Model Permissible"/>
                <ItemRef ItemOID="IT.DX.DXUSCHFL" OrderNumber="55" Mandatory="No" Role="Record Qualifier" val:Core="SEND Only"/>
                <ItemRef ItemOID="IT.DX.DXRSTIND" OrderNumber="56" Mandatory="No" Role="Record Qualifier" val:Core="SEND Only"/>
                <ItemRef ItemOID="IT.DX.DXRSTMOD" OrderNumber="57" Mandatory="No" Role="Record Qualifier" val:Core="SEND Only"/>
                <ItemRef ItemOID="IT.DX.VISITNUM" OrderNumber="58" Mandatory="No" Role="Timing" val:Core="Model Permissible"/>
                <ItemRef ItemOID="IT.DX.VISIT" OrderNumber="59" Mandatory="No" Role="Timing" val:Core="Model Permissible"/>
                <ItemRef ItemOID="IT.DX.VISITDY" OrderNumber="60" Mandatory="No" Role="Timing" val:Core="Model Permissible"/>
                <ItemRef ItemOID="IT.DX.TAETORD" OrderNumber="61" Mandatory="No" Role="Timing" val:Core="Model Permissible"/>
                <ItemRef ItemOID="IT.DX.EPOCH" OrderNumber="62" Mandatory="No" Role="Timing" val:Core="Model Permissible"/>
                <ItemRef ItemOID="IT.DX.RPHASE" OrderNumber="63" Mandatory="No" Role="Timing" val:Core="SEND Only"/>
                <ItemRef ItemOID="IT.DX.RPPLDY" OrderNumber="64" Mandatory="No" Role="Timing" val:Core="SEND Only"/>
                <ItemRef ItemOID="IT.DX.RPPLSTDY" OrderNumber="65" Mandatory="No" Role="Timing" val:Core="SEND Only"/>
                <ItemRef ItemOID="IT.DX.RPPLENDY" OrderNumber="66" Mandatory="No" Role="Timing" val:Core="SEND Only"/>
                <ItemRef ItemOID="IT.DX.DXDTC" OrderNumber="67" Mandatory="No" Role="Timing" val:Core="Model Permissible"/>
                <ItemRef ItemOID="IT.DX.DXSTDTC" OrderNumber="68" Mandatory="No" KeySequence="5" Role="Timing" val:Core="Expected"/>
                <ItemRef ItemOID="IT.DX.DXENDTC" OrderNumber="69" Mandatory="No" Role="Timing" val:Core="Permissible"/>
                <ItemRef ItemOID="IT.DX.DXDY" OrderNumber="70" Mandatory="No" Role="Timing" val:Core="Model Permissible"/>
                <ItemRef ItemOID="IT.DX.DXSTDY" OrderNumber="71" Mandatory="No" Role="Timing" val:Core="Permissible"/>
                <ItemRef ItemOID="IT.DX.DXENDY" OrderNumber="72" Mandatory="No" Role="Timing" val:Core="Permissible"/>
                <ItemRef ItemOID="IT.DX.DXNOMDY" OrderNumber="73" Mandatory="No" Role="Timing" val:Core="SEND Only"/>
                <ItemRef ItemOID="IT.DX.DXNOMLBL" OrderNumber="74" Mandatory="No" Role="Timing" val:Core="SEND Only"/>
                <ItemRef ItemOID="IT.DX.DXRPDY" OrderNumber="75" Mandatory="No" Role="Timing" val:Core="SEND Only"/>
                <ItemRef ItemOID="IT.DX.DXRPSTDY" OrderNumber="76" Mandatory="No" Role="Timing" val:Core="SEND Only"/>
                <ItemRef ItemOID="IT.DX.DXRPENDY" OrderNumber="77" Mandatory="No" Role="Timing" val:Core="SEND Only"/>
                <ItemRef ItemOID="IT.DX.DXXDY" OrderNumber="78" Mandatory="No" Role="Timing" val:Core="Model Permissible"/>
                <ItemRef ItemOID="IT.DX.DXXSTDY" OrderNumber="79" Mandatory="No" Role="Timing" val:Core="Model Permissible"/>
                <ItemRef ItemOID="IT.DX.DXXENDY" OrderNumber="80" Mandatory="No" Role="Timing" val:Core="Model Permissible"/>
                <ItemRef ItemOID="IT.DX.DXCHDY" OrderNumber="81" Mandatory="No" Role="Timing" val:Core="Model Permissible"/>
                <ItemRef ItemOID="IT.DX.DXCHSTDY" OrderNumber="82" Mandatory="No" Role="Timing" val:Core="Model Permissible"/>
                <ItemRef ItemOID="IT.DX.DXCHENDY" OrderNumber="83" Mandatory="No" Role="Timing" val:Core="Model Permissible"/>
                <ItemRef ItemOID="IT.DX.DXDUR" OrderNumber="84" Mandatory="No" Role="Timing" val:Core="Permissible"/>
                <ItemRef ItemOID="IT.DX.DXTPT" OrderNumber="85" Mandatory="No" Role="Timing" val:Core="Model Permissible"/>
                <ItemRef ItemOID="IT.DX.DXTPTNUM" OrderNumber="86" Mandatory="No" Role="Timing" val:Core="Model Permissible"/>
                <ItemRef ItemOID="IT.DX.DXELTM" OrderNumber="87" Mandatory="No" Role="Timing" val:Core="Model Permissible"/>
                <ItemRef ItemOID="IT.DX.DXTPTREF" OrderNumber="88" Mandatory="No" Role="Timing" val:Core="Model Permissible"/>
                <ItemRef ItemOID="IT.DX.DXRFTDTC" OrderNumber="89" Mandatory="No" Role="Timing" val:Core="Model Permissible"/>
                <ItemRef ItemOID="IT.DX.DXSTRF" OrderNumber="90" Mandatory="No" Role="Timing" val:Core="Model Permissible"/>
                <ItemRef ItemOID="IT.DX.DXENRF" OrderNumber="91" Mandatory="No" Role="Timing" val:Core="Model Permissible"/>
                <ItemRef ItemOID="IT.DX.DXEVLINT" OrderNumber="92" Mandatory="No" Role="Timing" val:Core="Model Permissible"/>
                <ItemRef ItemOID="IT.DX.DXEVINTX" OrderNumber="93" Mandatory="No" Role="Timing" val:Core="Model Permissible"/>
                <ItemRef ItemOID="IT.DX.DXSTRTPT" OrderNumber="94" Mandatory="No" Role="Timing" val:Core="Model Permissible"/>
                <ItemRef ItemOID="IT.DX.DXSTTPT" OrderNumber="95" Mandatory="No" Role="Timing" val:Core="Model Permissible"/>
                <ItemRef ItemOID="IT.DX.DXENRTPT" OrderNumber="96" Mandatory="No" Role="Timing" val:Core="Model Permissible"/>
                <ItemRef ItemOID="IT.DX.DXENTPT" OrderNumber="97" Mandatory="No" Role="Timing" val:Core="Model Permissible"/>
                <ItemRef ItemOID="IT.DX.MIDS" OrderNumber="98" Mandatory="No" Role="Timing" val:Core="Model Permissible"/>
                <ItemRef ItemOID="IT.DX.RELMIDS" OrderNumber="99" Mandatory="No" Role="Timing" val:Core="Model Permissible"/>
                <ItemRef ItemOID="IT.DX.MIDSDTC" OrderNumber="100" Mandatory="No" Role="Timing" val:Core="Model Permissible"/>
                <ItemRef ItemOID="IT.DX.DXSTINT" OrderNumber="101" Mandatory="No" Role="Timing" val:Core="Model Permissible"/>
                <ItemRef ItemOID="IT.DX.DXENINT" OrderNumber="102" Mandatory="No" Role="Timing" val:Core="Model Permissible"/>
                <ItemRef ItemOID="IT.DX.DXDETECT" OrderNumber="103" Mandatory="No" Role="Timing" val:Core="SEND Only"/>
                <ItemRef ItemOID="IT.DX.DXPTFL" OrderNumber="104" Mandatory="No" Role="Timing" val:Core="Prohibited"/>
                <ItemRef ItemOID="IT.DX.DXPDUR" OrderNumber="105" Mandatory="No" Role="Timing" val:Core="Prohibited"/>
                <def:leaf ID="Location.DX" xlink:href="dx.xpt">
                    <def:title>dx.xpt</def:title>
                </def:leaf>
                <val:ValidationRuleRef RuleID="CT2001" Active="Yes"/>
                <val:ValidationRuleRef RuleID="CT2002" Active="Yes"/>
                <val:ValidationRuleRef RuleID="CT2003" Active="Yes"/>
                <val:ValidationRuleRef RuleID="CT2004" Active="Yes"/>
                <val:ValidationRuleRef RuleID="CT2005" Active="Yes"/>
                <val:ValidationRuleRef RuleID="CT2006" Active="Yes"/>
                <val:ValidationRuleRef RuleID="SD0001" Active="Yes"/>
                <val:ValidationRuleRef RuleID="SD0002" Active="Yes"/>
                <val:ValidationRuleRef RuleID="SD0003" Active="Yes"/>
                <val:ValidationRuleRef RuleID="SD0004" Active="Yes"/>
                <val:ValidationRuleRef RuleID="SD0012" Active="Yes"/>
                <val:ValidationRuleRef RuleID="SD0013" Active="Yes"/>
                <val:ValidationRuleRef RuleID="SD0014" Active="Yes"/>
                <val:ValidationRuleRef RuleID="SD0015" Active="Yes"/>
                <val:ValidationRuleRef RuleID="SD0021" Active="Yes"/>
                <val:ValidationRuleRef RuleID="SD0022" Active="Yes"/>
                <val:ValidationRuleRef RuleID="SD0023" Active="Yes"/>
                <val:ValidationRuleRef RuleID="SD0031" Active="Yes"/>
                <val:ValidationRuleRef RuleID="SD0033" Active="Yes"/>
